stim4	key	order	d	k	PracticeTrials	Hand	Structure	Condition	H	Magnitude	Numbers	timestamp	response	RT	correct	sn	trial	trialInBlock	block
number1Mirror	k	2.NC-C	Smaller5	Larger5	no	Right	MIRROR	Incompatible	1	Smaller5	1	152704	k	719	1	360542_220124_205301	25	25	1
number6Mirror	d	2.NC-C	Smaller5	Larger5	no	Left	MIRROR	Incompatible	-1	Larger5	6	154512	d	610	1	360542_220124_205301	26	26	1
number4Mirror	k	2.NC-C	Smaller5	Larger5	no	Right	MIRROR	Incompatible	1	Smaller5	4	156288	k	586	1	360542_220124_205301	27	27	1
number1Mirror	k	2.NC-C	Smaller5	Larger5	no	Right	MIRROR	Incompatible	1	Smaller5	1	158335	k	850	1	360542_220124_205301	28	28	1
number4	k	2.NC-C	Smaller5	Larger5	no	Right	NORMAL	Incompatible	1	Smaller5	4	160143	k	609	1	360542_220124_205301	29	29	1
number1Mirror	k	2.NC-C	Smaller5	Larger5	no	Right	MIRROR	Incompatible	1	Smaller5	1	161823	k	490	1	360542_220124_205301	30	30	1
number1Mirror	k	2.NC-C	Smaller5	Larger5	no	Right	MIRROR	Incompatible	1	Smaller5	1	163503	k	485	1	360542_220124_205301	31	31	1
number7	d	2.NC-C	Smaller5	Larger5	no	Left	NORMAL	Incompatible	-1	Larger5	7	165231	d	531	1	360542_220124_205301	32	32	1
number6Mirror	d	2.NC-C	Smaller5	Larger5	no	Left	MIRROR	Incompatible	-1	Larger5	6	167007	d	591	1	360542_220124_205301	33	33	1
number3Mirror	k	2.NC-C	Smaller5	Larger5	no	Right	MIRROR	Incompatible	1	Smaller5	3	168735	k	535	1	360542_220124_205301	34	34	1
number9Mirror	d	2.NC-C	Smaller5	Larger5	no	Left	MIRROR	Incompatible	-1	Larger5	9	170574	d	642	1	360542_220124_205301	35	35	1
number6	d	2.NC-C	Smaller5	Larger5	no	Left	NORMAL	Incompatible	-1	Larger5	6	172351	d	586	1	360542_220124_205301	36	36	1
number6	d	2.NC-C	Smaller5	Larger5	no	Left	NORMAL	Incompatible	-1	Larger5	6	174047	d	499	1	360542_220124_205301	37	37	1
number9Mirror	d	2.NC-C	Smaller5	Larger5	no	Left	MIRROR	Incompatible	-1	Larger5	9	175823	d	592	1	360542_220124_205301	38	38	1
number4	k	2.NC-C	Smaller5	Larger5	no	Right	NORMAL	Incompatible	1	Smaller5	4	177599	k	584	1	360542_220124_205301	39	39	1
number9	d	2.NC-C	Smaller5	Larger5	no	Left	NORMAL	Incompatible	-1	Larger5	9	179279	d	482	1	360542_220124_205301	40	40	1
number4	k	2.NC-C	Smaller5	Larger5	no	Right	NORMAL	Incompatible	1	Smaller5	4	181007	k	543	1	360542_220124_205301	41	41	1
number9	d	2.NC-C	Smaller5	Larger5	no	Left	NORMAL	Incompatible	-1	Larger5	9	182710	d	513	1	360542_220124_205301	42	42	1
number3	k	2.NC-C	Smaller5	Larger5	no	Right	NORMAL	Incompatible	1	Smaller5	3	184430	k	533	1	360542_220124_205301	43	43	1
number3Mirror	k	2.NC-C	Smaller5	Larger5	no	Right	MIRROR	Incompatible	1	Smaller5	3	186127	k	498	1	360542_220124_205301	44	44	1
number9	d	2.NC-C	Smaller5	Larger5	no	Left	NORMAL	Incompatible	-1	Larger5	9	187855	d	542	1	360542_220124_205301	45	45	1
number1	k	2.NC-C	Smaller5	Larger5	no	Right	NORMAL	Incompatible	1	Smaller5	1	189807	k	762	1	360542_220124_205301	46	46	1
number3	k	2.NC-C	Smaller5	Larger5	no	Right	NORMAL	Incompatible	1	Smaller5	3	191535	k	539	1	360542_220124_205301	47	47	1
number4Mirror	k	2.NC-C	Smaller5	Larger5	no	Right	MIRROR	Incompatible	1	Smaller5	4	193280	k	551	1	360542_220124_205301	48	48	1
number3Mirror	k	2.NC-C	Smaller5	Larger5	no	Right	MIRROR	Incompatible	1	Smaller5	3	195007	k	529	1	360542_220124_205301	49	49	1
number7	d	2.NC-C	Smaller5	Larger5	no	Left	NORMAL	Incompatible	-1	Larger5	7	196655	d	461	1	360542_220124_205301	50	50	1
number4Mirror	k	2.NC-C	Smaller5	Larger5	no	Right	MIRROR	Incompatible	1	Smaller5	4	198351	k	507	1	360542_220124_205301	51	51	1
number6Mirror	d	2.NC-C	Smaller5	Larger5	no	Left	MIRROR	Incompatible	-1	Larger5	6	200127	d	584	1	360542_220124_205301	52	52	1
number6Mirror	d	2.NC-C	Smaller5	Larger5	no	Left	MIRROR	Incompatible	-1	Larger5	6	201855	d	528	1	360542_220124_205301	53	53	1
number6Mirror	d	2.NC-C	Smaller5	Larger5	no	Left	MIRROR	Incompatible	-1	Larger5	6	203567	d	524	1	360542_220124_205301	54	54	1
number4	k	2.NC-C	Smaller5	Larger5	no	Right	NORMAL	Incompatible	1	Smaller5	4	205247	k	488	1	360542_220124_205301	55	55	1
number3	k	2.NC-C	Smaller5	Larger5	no	Right	NORMAL	Incompatible	1	Smaller5	3	206911	k	468	1	360542_220124_205301	56	56	1
number9Mirror	d	2.NC-C	Smaller5	Larger5	no	Left	MIRROR	Incompatible	-1	Larger5	9	208623	d	515	1	360542_220124_205301	57	57	1
number1	k	2.NC-C	Smaller5	Larger5	no	Right	NORMAL	Incompatible	1	Smaller5	1	210335	k	527	1	360542_220124_205301	58	58	1
number1	k	2.NC-C	Smaller5	Larger5	no	Right	NORMAL	Incompatible	1	Smaller5	1	212095	k	570	1	360542_220124_205301	59	59	1
number3	k	2.NC-C	Smaller5	Larger5	no	Right	NORMAL	Incompatible	1	Smaller5	3	213952	k	661	1	360542_220124_205301	60	60	1
number9Mirror	d	2.NC-C	Smaller5	Larger5	no	Left	MIRROR	Incompatible	-1	Larger5	9	215679	d	538	1	360542_220124_205301	61	61	1
number6	d	2.NC-C	Smaller5	Larger5	no	Left	NORMAL	Incompatible	-1	Larger5	6	217616	d	742	1	360542_220124_205301	62	62	1
number4	k	2.NC-C	Smaller5	Larger5	no	Right	NORMAL	Incompatible	1	Smaller5	4	219327	k	520	1	360542_220124_205301	63	63	1
number6Mirror	d	2.NC-C	Smaller5	Larger5	no	Left	MIRROR	Incompatible	-1	Larger5	6	221119	d	596	1	360542_220124_205301	64	64	1
number3Mirror	k	2.NC-C	Smaller5	Larger5	no	Right	MIRROR	Incompatible	1	Smaller5	3	222815	k	509	1	360542_220124_205301	65	65	1
number1	k	2.NC-C	Smaller5	Larger5	no	Right	NORMAL	Incompatible	1	Smaller5	1	224591	k	586	1	360542_220124_205301	66	66	1
number7Mirror	d	2.NC-C	Smaller5	Larger5	no	Left	MIRROR	Incompatible	-1	Larger5	7	226383	d	594	1	360542_220124_205301	67	67	1
number1Mirror	k	2.NC-C	Smaller5	Larger5	no	Right	MIRROR	Incompatible	1	Smaller5	1	228079	k	507	1	360542_220124_205301	68	68	1
number7Mirror	d	2.NC-C	Smaller5	Larger5	no	Left	MIRROR	Incompatible	-1	Larger5	7	229951	d	680	1	360542_220124_205301	69	69	1
number4	k	2.NC-C	Smaller5	Larger5	no	Right	NORMAL	Incompatible	1	Smaller5	4	231839	k	701	1	360542_220124_205301	70	70	1
number1	k	2.NC-C	Smaller5	Larger5	no	Right	NORMAL	Incompatible	1	Smaller5	1	233536	k	498	1	360542_220124_205301	71	71	1
number7Mirror	d	2.NC-C	Smaller5	Larger5	no	Left	MIRROR	Incompatible	-1	Larger5	7	235264	d	543	1	360542_220124_205301	72	72	1
number3	k	2.NC-C	Smaller5	Larger5	no	Right	NORMAL	Incompatible	1	Smaller5	3	236927	k	474	1	360542_220124_205301	73	73	1
number7Mirror	d	2.NC-C	Smaller5	Larger5	no	Left	MIRROR	Incompatible	-1	Larger5	7	238639	d	519	1	360542_220124_205301	74	74	1
number1	k	2.NC-C	Smaller5	Larger5	no	Right	NORMAL	Incompatible	1	Smaller5	1	240320	k	483	1	360542_220124_205301	75	75	1
number6Mirror	d	2.NC-C	Smaller5	Larger5	no	Left	MIRROR	Incompatible	-1	Larger5	6	242047	d	544	1	360542_220124_205301	76	76	1
number9Mirror	d	2.NC-C	Smaller5	Larger5	no	Left	MIRROR	Incompatible	-1	Larger5	9	243807	d	571	1	360542_220124_205301	77	77	1
number1Mirror	k	2.NC-C	Smaller5	Larger5	no	Right	MIRROR	Incompatible	1	Smaller5	1	245439	k	438	1	360542_220124_205301	78	78	1
number7	d	2.NC-C	Smaller5	Larger5	no	Left	NORMAL	Incompatible	-1	Larger5	7	247167	d	532	1	360542_220124_205301	79	79	1
number3	k	2.NC-C	Smaller5	Larger5	no	Right	NORMAL	Incompatible	1	Smaller5	3	248846	k	495	1	360542_220124_205301	80	80	1
number1	k	2.NC-C	Smaller5	Larger5	no	Right	NORMAL	Incompatible	1	Smaller5	1	250511	k	477	1	360542_220124_205301	81	81	1
number6Mirror	d	2.NC-C	Smaller5	Larger5	no	Left	MIRROR	Incompatible	-1	Larger5	6	252319	d	618	1	360542_220124_205301	82	82	1
number4Mirror	k	2.NC-C	Smaller5	Larger5	no	Right	MIRROR	Incompatible	1	Smaller5	4	254015	k	498	1	360542_220124_205301	83	83	1
number1	k	2.NC-C	Smaller5	Larger5	no	Right	NORMAL	Incompatible	1	Smaller5	1	255984	k	784	1	360542_220124_205301	84	84	1
number9Mirror	d	2.NC-C	Smaller5	Larger5	no	Left	MIRROR	Incompatible	-1	Larger5	9	257729	d	546	1	360542_220124_205301	85	85	1
number3	k	2.NC-C	Smaller5	Larger5	no	Right	NORMAL	Incompatible	1	Smaller5	3	259487	k	571	1	360542_220124_205301	86	86	1
number7Mirror	d	2.NC-C	Smaller5	Larger5	no	Left	MIRROR	Incompatible	-1	Larger5	7	261198	d	516	1	360542_220124_205301	87	87	1
number9	d	2.NC-C	Smaller5	Larger5	no	Left	NORMAL	Incompatible	-1	Larger5	9	262959	d	560	1	360542_220124_205301	88	88	1
number9Mirror	d	2.NC-C	Smaller5	Larger5	no	Left	MIRROR	Incompatible	-1	Larger5	9	264671	d	523	1	360542_220124_205301	89	89	1
number1Mirror	k	2.NC-C	Smaller5	Larger5	no	Right	MIRROR	Incompatible	1	Smaller5	1	266416	k	550	1	360542_220124_205301	90	90	1
number3Mirror	k	2.NC-C	Smaller5	Larger5	no	Right	MIRROR	Incompatible	1	Smaller5	3	268111	k	497	1	360542_220124_205301	91	91	1
number6Mirror	d	2.NC-C	Smaller5	Larger5	no	Left	MIRROR	Incompatible	-1	Larger5	6	269823	d	525	1	360542_220124_205301	92	92	1
number3	k	2.NC-C	Smaller5	Larger5	no	Right	NORMAL	Incompatible	1	Smaller5	3	271407	k	393	1	360542_220124_205301	93	93	1
number3Mirror	k	2.NC-C	Smaller5	Larger5	no	Right	MIRROR	Incompatible	1	Smaller5	3	273183	k	587	1	360542_220124_205301	94	94	1
number9	d	2.NC-C	Smaller5	Larger5	no	Left	NORMAL	Incompatible	-1	Larger5	9	274959	d	579	1	360542_220124_205301	95	95	1
number6	d	2.NC-C	Smaller5	Larger5	no	Left	NORMAL	Incompatible	-1	Larger5	6	276927	d	781	1	360542_220124_205301	96	96	1
number7Mirror	d	2.NC-C	Smaller5	Larger5	no	Left	MIRROR	Incompatible	-1	Larger5	7	278798	d	686	1	360542_220124_205301	97	97	1
number1	k	2.NC-C	Smaller5	Larger5	no	Right	NORMAL	Incompatible	1	Smaller5	1	280527	k	531	1	360542_220124_205301	98	98	1
number1Mirror	k	2.NC-C	Smaller5	Larger5	no	Right	MIRROR	Incompatible	1	Smaller5	1	282191	k	479	1	360542_220124_205301	99	99	1
number3Mirror	k	2.NC-C	Smaller5	Larger5	no	Right	MIRROR	Incompatible	1	Smaller5	3	283919	k	541	1	360542_220124_205301	100	100	1
number1Mirror	k	2.NC-C	Smaller5	Larger5	no	Right	MIRROR	Incompatible	1	Smaller5	1	285631	k	519	1	360542_220124_205301	101	101	1
number6	d	2.NC-C	Smaller5	Larger5	no	Left	NORMAL	Incompatible	-1	Larger5	6	287503	d	674	1	360542_220124_205301	102	102	1
number3	k	2.NC-C	Smaller5	Larger5	no	Right	NORMAL	Incompatible	1	Smaller5	3	289152	k	458	1	360542_220124_205301	103	103	1
number7	d	2.NC-C	Smaller5	Larger5	no	Left	NORMAL	Incompatible	-1	Larger5	7	290960	d	616	1	360542_220124_205301	104	104	1
number3	k	2.NC-C	Smaller5	Larger5	no	Right	NORMAL	Incompatible	1	Smaller5	3	292656	k	513	1	360542_220124_205301	105	105	1
number4Mirror	k	2.NC-C	Smaller5	Larger5	no	Right	MIRROR	Incompatible	1	Smaller5	4	294431	k	588	1	360542_220124_205301	106	106	1
number6Mirror	d	2.NC-C	Smaller5	Larger5	no	Left	MIRROR	Incompatible	-1	Larger5	6	296303	d	677	1	360542_220124_205301	107	107	1
number7	d	2.NC-C	Smaller5	Larger5	no	Left	NORMAL	Incompatible	-1	Larger5	7	298175	d	683	1	360542_220124_205301	108	108	1
number4	k	2.NC-C	Smaller5	Larger5	no	Right	NORMAL	Incompatible	1	Smaller5	4	300255	k	897	1	360542_220124_205301	109	109	1
number4Mirror	k	2.NC-C	Smaller5	Larger5	no	Right	MIRROR	Incompatible	1	Smaller5	4	301969	k	527	1	360542_220124_205301	110	110	1
number7Mirror	d	2.NC-C	Smaller5	Larger5	no	Left	MIRROR	Incompatible	-1	Larger5	7	303695	d	537	1	360542_220124_205301	111	111	1
number6	d	2.NC-C	Smaller5	Larger5	no	Left	NORMAL	Incompatible	-1	Larger5	6	305487	d	596	1	360542_220124_205301	112	112	1
number4Mirror	k	2.NC-C	Smaller5	Larger5	no	Right	MIRROR	Incompatible	1	Smaller5	4	307151	k	477	1	360542_220124_205301	113	113	1
number4Mirror	k	2.NC-C	Smaller5	Larger5	no	Right	MIRROR	Incompatible	1	Smaller5	4	308815	k	475	1	360542_220124_205301	114	114	1
number3Mirror	k	2.NC-C	Smaller5	Larger5	no	Right	MIRROR	Incompatible	1	Smaller5	3	310527	k	520	1	360542_220124_205301	115	115	1
number4Mirror	k	2.NC-C	Smaller5	Larger5	no	Right	MIRROR	Incompatible	1	Smaller5	4	312191	k	468	1	360542_220124_205301	116	116	1
number3Mirror	k	2.NC-C	Smaller5	Larger5	no	Right	MIRROR	Incompatible	1	Smaller5	3	313904	k	514	1	360542_220124_205301	117	117	1
number7Mirror	d	2.NC-C	Smaller5	Larger5	no	Left	MIRROR	Incompatible	-1	Larger5	7	315599	d	510	1	360542_220124_205301	118	118	1
number4	k	2.NC-C	Smaller5	Larger5	no	Right	NORMAL	Incompatible	1	Smaller5	4	317231	k	442	1	360542_220124_205301	119	119	1
number7	d	2.NC-C	Smaller5	Larger5	no	Left	NORMAL	Incompatible	-1	Larger5	7	319007	d	586	1	360542_220124_205301	120	120	1
number4Mirror	k	2.NC-C	Smaller5	Larger5	no	Right	MIRROR	Incompatible	1	Smaller5	4	320703	k	499	1	360542_220124_205301	121	121	1
number9	d	2.NC-C	Smaller5	Larger5	no	Left	NORMAL	Incompatible	-1	Larger5	9	322495	d	607	1	360542_220124_205301	122	122	1
number4	k	2.NC-C	Smaller5	Larger5	no	Right	NORMAL	Incompatible	1	Smaller5	4	324271	k	584	1	360542_220124_205301	123	123	1
number4	k	2.NC-C	Smaller5	Larger5	no	Right	NORMAL	Incompatible	1	Smaller5	4	326015	k	544	1	360542_220124_205301	124	124	1
number9	d	2.NC-C	Smaller5	Larger5	no	Left	NORMAL	Incompatible	-1	Larger5	9	327775	d	572	1	360542_220124_205301	125	125	1
number1	k	2.NC-C	Smaller5	Larger5	no	Right	NORMAL	Incompatible	1	Smaller5	1	329408	k	438	1	360542_220124_205301	126	126	1
number1	k	2.NC-C	Smaller5	Larger5	no	Right	NORMAL	Incompatible	1	Smaller5	1	331103	k	500	1	360542_220124_205301	127	127	1
number6	d	2.NC-C	Smaller5	Larger5	no	Left	NORMAL	Incompatible	-1	Larger5	6	332799	d	496	1	360542_220124_205301	128	128	1
number4Mirror	k	2.NC-C	Smaller5	Larger5	no	Right	MIRROR	Incompatible	1	Smaller5	4	334462	k	477	1	360542_220124_205301	129	129	1
number1Mirror	k	2.NC-C	Smaller5	Larger5	no	Right	MIRROR	Incompatible	1	Smaller5	1	336144	k	492	1	360542_220124_205301	130	130	1
number3	k	2.NC-C	Smaller5	Larger5	no	Right	NORMAL	Incompatible	1	Smaller5	3	337903	k	568	1	360542_220124_205301	131	131	1
number3	k	2.NC-C	Smaller5	Larger5	no	Right	NORMAL	Incompatible	1	Smaller5	3	339710	k	609	1	360542_220124_205301	132	132	1
number3	k	2.NC-C	Smaller5	Larger5	no	Right	NORMAL	Incompatible	1	Smaller5	3	341423	k	522	1	360542_220124_205301	133	133	1
number3Mirror	k	2.NC-C	Smaller5	Larger5	no	Right	MIRROR	Incompatible	1	Smaller5	3	343087	k	470	1	360542_220124_205301	134	134	1
number7Mirror	d	2.NC-C	Smaller5	Larger5	no	Left	MIRROR	Incompatible	-1	Larger5	7	344831	d	548	1	360542_220124_205301	135	135	1
number7	d	2.NC-C	Smaller5	Larger5	no	Left	NORMAL	Incompatible	-1	Larger5	7	346463	d	447	1	360542_220124_205301	136	136	1
number7Mirror	d	2.NC-C	Smaller5	Larger5	no	Left	MIRROR	Incompatible	-1	Larger5	7	348143	d	493	1	360542_220124_205301	137	137	1
number1Mirror	k	2.NC-C	Smaller5	Larger5	no	Right	MIRROR	Incompatible	1	Smaller5	1	349935	k	603	1	360542_220124_205301	138	138	1
number9	d	2.NC-C	Smaller5	Larger5	no	Left	NORMAL	Incompatible	-1	Larger5	9	351791	d	659	1	360542_220124_205301	139	139	1
number3	k	2.NC-C	Smaller5	Larger5	no	Right	NORMAL	Incompatible	1	Smaller5	3	353423	k	441	1	360542_220124_205301	140	140	1
number9Mirror	d	2.NC-C	Smaller5	Larger5	no	Left	MIRROR	Incompatible	-1	Larger5	9	355135	d	520	1	360542_220124_205301	141	141	1
number7	d	2.NC-C	Smaller5	Larger5	no	Left	NORMAL	Incompatible	-1	Larger5	7	356832	d	500	1	360542_220124_205301	142	142	1
number1Mirror	k	2.NC-C	Smaller5	Larger5	no	Right	MIRROR	Incompatible	1	Smaller5	1	358479	k	448	1	360542_220124_205301	143	143	1
number6	d	2.NC-C	Smaller5	Larger5	no	Left	NORMAL	Incompatible	-1	Larger5	6	360528	d	863	1	360542_220124_205301	144	144	1
number6	d	2.NC-C	Smaller5	Larger5	no	Left	NORMAL	Incompatible	-1	Larger5	6	362191	d	477	1	360542_220124_205301	145	145	1
number6Mirror	d	2.NC-C	Smaller5	Larger5	no	Left	MIRROR	Incompatible	-1	Larger5	6	363856	d	476	1	360542_220124_205301	146	146	1
number7	d	2.NC-C	Smaller5	Larger5	no	Left	NORMAL	Incompatible	-1	Larger5	7	365536	d	489	1	360542_220124_205301	147	147	1
number9Mirror	d	2.NC-C	Smaller5	Larger5	no	Left	MIRROR	Incompatible	-1	Larger5	9	367264	d	535	1	360542_220124_205301	148	148	1
number3	k	2.NC-C	Smaller5	Larger5	no	Right	NORMAL	Incompatible	1	Smaller5	3	368911	k	448	1	360542_220124_205301	149	149	1
number1	k	2.NC-C	Smaller5	Larger5	no	Right	NORMAL	Incompatible	1	Smaller5	1	370511	k	415	1	360542_220124_205301	150	150	1
number9Mirror	d	2.NC-C	Smaller5	Larger5	no	Left	MIRROR	Incompatible	-1	Larger5	9	372193	d	497	1	360542_220124_205301	151	151	1
number9	d	2.NC-C	Smaller5	Larger5	no	Left	NORMAL	Incompatible	-1	Larger5	9	373855	d	477	1	360542_220124_205301	152	152	1
number6Mirror	d	2.NC-C	Smaller5	Larger5	no	Left	MIRROR	Incompatible	-1	Larger5	6	375519	k	474	0	360542_220124_205301	153	153	1
number7	d	2.NC-C	Smaller5	Larger5	no	Left	NORMAL	Incompatible	-1	Larger5	7	377791	d	663	1	360542_220124_205301	154	154	1
number6	d	2.NC-C	Smaller5	Larger5	no	Left	NORMAL	Incompatible	-1	Larger5	6	379791	d	814	1	360542_220124_205301	155	155	1
number9	d	2.NC-C	Smaller5	Larger5	no	Left	NORMAL	Incompatible	-1	Larger5	9	381535	d	558	1	360542_220124_205301	156	156	1
number9	d	2.NC-C	Smaller5	Larger5	no	Left	NORMAL	Incompatible	-1	Larger5	9	383280	d	553	1	360542_220124_205301	157	157	1
number3Mirror	k	2.NC-C	Smaller5	Larger5	no	Right	MIRROR	Incompatible	1	Smaller5	3	384992	k	516	1	360542_220124_205301	158	158	1
number4Mirror	k	2.NC-C	Smaller5	Larger5	no	Right	MIRROR	Incompatible	1	Smaller5	4	386895	k	719	1	360542_220124_205301	159	159	1
number4	k	2.NC-C	Smaller5	Larger5	no	Right	NORMAL	Incompatible	1	Smaller5	4	388527	k	434	1	360542_220124_205301	160	160	1
number7	d	2.NC-C	Smaller5	Larger5	no	Left	NORMAL	Incompatible	-1	Larger5	7	390271	d	546	1	360542_220124_205301	161	161	1
number4	k	2.NC-C	Smaller5	Larger5	no	Right	NORMAL	Incompatible	1	Smaller5	4	392047	k	589	1	360542_220124_205301	162	162	1
number7Mirror	d	2.NC-C	Smaller5	Larger5	no	Left	MIRROR	Incompatible	-1	Larger5	7	393711	d	470	1	360542_220124_205301	163	163	1
number3Mirror	k	2.NC-C	Smaller5	Larger5	no	Right	MIRROR	Incompatible	1	Smaller5	3	395439	k	531	1	360542_220124_205301	164	164	1
number4Mirror	k	2.NC-C	Smaller5	Larger5	no	Right	MIRROR	Incompatible	1	Smaller5	4	397215	k	591	1	360542_220124_205301	165	165	1
number9	d	2.NC-C	Smaller5	Larger5	no	Left	NORMAL	Incompatible	-1	Larger5	9	398943	d	536	1	360542_220124_205301	166	166	1
number6Mirror	d	2.NC-C	Smaller5	Larger5	no	Left	MIRROR	Incompatible	-1	Larger5	6	400752	d	612	1	360542_220124_205301	167	167	1
number9	d	2.NC-C	Smaller5	Larger5	no	Left	NORMAL	Incompatible	-1	Larger5	9	402431	d	491	1	360542_220124_205301	168	168	1
number1	k	2.NC-C	Smaller5	Larger5	no	Right	NORMAL	Incompatible	1	Smaller5	1	404128	k	505	1	360542_220124_205301	169	169	1
number3	k	2.NC-C	Smaller5	Larger5	no	Right	NORMAL	Incompatible	1	Smaller5	3	405855	k	533	1	360542_220124_205301	170	170	1
number1	k	2.NC-C	Smaller5	Larger5	no	Right	NORMAL	Incompatible	1	Smaller5	1	407615	k	576	1	360542_220124_205301	171	171	1
number7Mirror	d	2.NC-C	Smaller5	Larger5	no	Left	MIRROR	Incompatible	-1	Larger5	7	409328	d	523	1	360542_220124_205301	172	172	1
number4	k	2.NC-C	Smaller5	Larger5	no	Right	NORMAL	Incompatible	1	Smaller5	4	411200	k	678	1	360542_220124_205301	173	173	1
number7	d	2.NC-C	Smaller5	Larger5	no	Left	NORMAL	Incompatible	-1	Larger5	7	412927	d	539	1	360542_220124_205301	174	174	1
number7	d	2.NC-C	Smaller5	Larger5	no	Left	NORMAL	Incompatible	-1	Larger5	7	414720	d	599	1	360542_220124_205301	175	175	1
number4	k	2.NC-C	Smaller5	Larger5	no	Right	NORMAL	Incompatible	1	Smaller5	4	416367	k	463	1	360542_220124_205301	176	176	1
number7Mirror	d	2.NC-C	Smaller5	Larger5	no	Left	MIRROR	Incompatible	-1	Larger5	7	418033	d	479	1	360542_220124_205301	177	177	1
number4	k	2.NC-C	Smaller5	Larger5	no	Right	NORMAL	Incompatible	1	Smaller5	4	420079	k	859	1	360542_220124_205301	178	178	1
number9Mirror	d	2.NC-C	Smaller5	Larger5	no	Left	MIRROR	Incompatible	-1	Larger5	9	421775	d	505	1	360542_220124_205301	179	179	1
number3	k	2.NC-C	Smaller5	Larger5	no	Right	NORMAL	Incompatible	1	Smaller5	3	423423	k	454	1	360542_220124_205301	180	180	1
number3Mirror	k	2.NC-C	Smaller5	Larger5	no	Right	MIRROR	Incompatible	1	Smaller5	3	425088	k	469	1	360542_220124_205301	181	181	1
number1Mirror	k	2.NC-C	Smaller5	Larger5	no	Right	MIRROR	Incompatible	1	Smaller5	1	426911	k	626	1	360542_220124_205301	182	182	1
number7Mirror	d	2.NC-C	Smaller5	Larger5	no	Left	MIRROR	Incompatible	-1	Larger5	7	428673	d	571	1	360542_220124_205301	183	183	1
number9	d	2.NC-C	Smaller5	Larger5	no	Left	NORMAL	Incompatible	-1	Larger5	9	430575	d	707	1	360542_220124_205301	184	184	1
number9	d	2.NC-C	Smaller5	Larger5	no	Left	NORMAL	Incompatible	-1	Larger5	9	432319	d	551	1	360542_220124_205301	185	185	1
number6	d	2.NC-C	Smaller5	Larger5	no	Left	NORMAL	Incompatible	-1	Larger5	6	434239	d	722	1	360542_220124_205301	186	186	1
number7Mirror	d	2.NC-C	Smaller5	Larger5	no	Left	MIRROR	Incompatible	-1	Larger5	7	435968	d	534	1	360542_220124_205301	187	187	1
number1Mirror	k	2.NC-C	Smaller5	Larger5	no	Right	MIRROR	Incompatible	1	Smaller5	1	437807	k	641	1	360542_220124_205301	188	188	1
number1	k	2.NC-C	Smaller5	Larger5	no	Right	NORMAL	Incompatible	1	Smaller5	1	439439	k	440	1	360542_220124_205301	189	189	1
number6	d	2.NC-C	Smaller5	Larger5	no	Left	NORMAL	Incompatible	-1	Larger5	6	441343	d	710	1	360542_220124_205301	190	190	1
number6Mirror	d	2.NC-C	Smaller5	Larger5	no	Left	MIRROR	Incompatible	-1	Larger5	6	442992	d	459	1	360542_220124_205301	191	191	1
number3Mirror	k	2.NC-C	Smaller5	Larger5	no	Right	MIRROR	Incompatible	1	Smaller5	3	444687	k	505	1	360542_220124_205301	192	192	1
number9Mirror	d	2.NC-C	Smaller5	Larger5	no	Left	MIRROR	Incompatible	-1	Larger5	9	446496	d	614	1	360542_220124_205301	193	193	1
number7	d	2.NC-C	Smaller5	Larger5	no	Left	NORMAL	Incompatible	-1	Larger5	7	448447	d	766	1	360542_220124_205301	194	194	1
number1Mirror	k	2.NC-C	Smaller5	Larger5	no	Right	MIRROR	Incompatible	1	Smaller5	1	450160	k	529	1	360542_220124_205301	195	195	1
number1	k	2.NC-C	Smaller5	Larger5	no	Right	NORMAL	Incompatible	1	Smaller5	1	451872	k	525	1	360542_220124_205301	196	196	1
number9	d	2.NC-C	Smaller5	Larger5	no	Left	NORMAL	Incompatible	-1	Larger5	9	453615	d	551	1	360542_220124_205301	197	197	1
number1Mirror	k	2.NC-C	Smaller5	Larger5	no	Right	MIRROR	Incompatible	1	Smaller5	1	455359	k	545	1	360542_220124_205301	198	198	1
number6	d	2.NC-C	Smaller5	Larger5	no	Left	NORMAL	Incompatible	-1	Larger5	6	457121	d	575	1	360542_220124_205301	199	199	1
number4	k	2.NC-C	Smaller5	Larger5	no	Right	NORMAL	Incompatible	1	Smaller5	4	458784	k	471	1	360542_220124_205301	200	200	1
number6	d	2.NC-C	Smaller5	Larger5	no	Left	NORMAL	Incompatible	-1	Larger5	6	460415	d	436	1	360542_220124_205301	201	201	1
number9Mirror	d	2.NC-C	Smaller5	Larger5	no	Left	MIRROR	Incompatible	-1	Larger5	9	462239	d	627	1	360542_220124_205301	202	202	1
number3Mirror	k	2.NC-C	Smaller5	Larger5	no	Right	MIRROR	Incompatible	1	Smaller5	3	463919	k	491	1	360542_220124_205301	203	203	1
number6Mirror	d	2.NC-C	Smaller5	Larger5	no	Left	MIRROR	Incompatible	-1	Larger5	6	465695	d	584	1	360542_220124_205301	204	204	1
number6Mirror	d	2.NC-C	Smaller5	Larger5	no	Left	MIRROR	Incompatible	-1	Larger5	6	467520	d	625	1	360542_220124_205301	205	205	1
number7	d	2.NC-C	Smaller5	Larger5	no	Left	NORMAL	Incompatible	-1	Larger5	7	469504	d	793	1	360542_220124_205301	206	206	1
number6	d	2.NC-C	Smaller5	Larger5	no	Left	NORMAL	Incompatible	-1	Larger5	6	471248	d	554	1	360542_220124_205301	207	207	1
number1Mirror	k	2.NC-C	Smaller5	Larger5	no	Right	MIRROR	Incompatible	1	Smaller5	1	472944	k	501	1	360542_220124_205301	208	208	1
number9Mirror	d	2.NC-C	Smaller5	Larger5	no	Left	MIRROR	Incompatible	-1	Larger5	9	474639	d	512	1	360542_220124_205301	209	209	1
number6	d	2.NC-C	Smaller5	Larger5	no	Left	NORMAL	Incompatible	-1	Larger5	6	476480	d	653	1	360542_220124_205301	210	210	1
number3	k	2.NC-C	Smaller5	Larger5	no	Right	NORMAL	Incompatible	1	Smaller5	3	478127	k	451	1	360542_220124_205301	211	211	1
number9Mirror	d	2.NC-C	Smaller5	Larger5	no	Left	MIRROR	Incompatible	-1	Larger5	9	479871	d	545	1	360542_220124_205301	212	212	1
number7	d	2.NC-C	Smaller5	Larger5	no	Left	NORMAL	Incompatible	-1	Larger5	7	481647	d	588	1	360542_220124_205301	213	213	1
number9Mirror	d	2.NC-C	Smaller5	Larger5	no	Left	MIRROR	Incompatible	-1	Larger5	9	483326	d	484	1	360542_220124_205301	214	214	1
number4	k	2.NC-C	Smaller5	Larger5	no	Right	NORMAL	Incompatible	1	Smaller5	4	485135	k	611	1	360542_220124_205301	215	215	1
number6	d	2.NC-C	Smaller5	Larger5	no	Left	NORMAL	Incompatible	-1	Larger5	6	486927	d	603	1	360542_220124_205301	216	216	1
number1Mirror	k	2.NC-C	Smaller5	Larger5	no	Right	MIRROR	Incompatible	1	Smaller5	1	488768	k	644	1	360542_220124_205301	217	217	1
number3Mirror	k	2.NC-C	Smaller5	Larger5	no	Right	MIRROR	Incompatible	1	Smaller5	3	490447	k	490	1	360542_220124_205301	218	218	1
number4Mirror	k	2.NC-C	Smaller5	Larger5	no	Right	MIRROR	Incompatible	1	Smaller5	4	492175	k	535	1	360542_220124_205301	219	219	1
number9	d	2.NC-C	Smaller5	Larger5	no	Left	NORMAL	Incompatible	-1	Larger5	9	494031	d	658	1	360542_220124_205301	220	220	1
number4Mirror	k	2.NC-C	Smaller5	Larger5	no	Right	MIRROR	Incompatible	1	Smaller5	4	496126	k	903	1	360542_220124_205301	221	221	1
number7Mirror	d	2.NC-C	Smaller5	Larger5	no	Left	MIRROR	Incompatible	-1	Larger5	7	497951	d	629	1	360542_220124_205301	222	222	1
number7	d	2.NC-C	Smaller5	Larger5	no	Left	NORMAL	Incompatible	-1	Larger5	7	499696	d	557	1	360542_220124_205301	223	223	1
number3Mirror	k	2.NC-C	Smaller5	Larger5	no	Right	MIRROR	Incompatible	1	Smaller5	3	501376	k	488	1	360542_220124_205301	224	224	1
number7Mirror	d	2.NC-C	Smaller5	Larger5	no	Left	MIRROR	Incompatible	-1	Larger5	7	503103	d	532	1	360542_220124_205301	225	225	1
number1Mirror	k	2.NC-C	Smaller5	Larger5	no	Right	MIRROR	Incompatible	1	Smaller5	1	504832	k	545	1	360542_220124_205301	226	226	1
number3Mirror	k	2.NC-C	Smaller5	Larger5	no	Right	MIRROR	Incompatible	1	Smaller5	3	506561	k	540	1	360542_220124_205301	227	227	1
number4Mirror	k	2.NC-C	Smaller5	Larger5	no	Right	MIRROR	Incompatible	1	Smaller5	4	508367	k	613	1	360542_220124_205301	228	228	1
number7Mirror	d	2.NC-C	Smaller5	Larger5	no	Left	MIRROR	Incompatible	-1	Larger5	7	510128	d	574	1	360542_220124_205301	229	229	1
number1	k	2.NC-C	Smaller5	Larger5	no	Right	NORMAL	Incompatible	1	Smaller5	1	511824	k	504	1	360542_220124_205301	230	230	1
number9Mirror	d	2.NC-C	Smaller5	Larger5	no	Left	MIRROR	Incompatible	-1	Larger5	9	513679	d	660	1	360542_220124_205301	231	231	1
number6Mirror	d	2.NC-C	Smaller5	Larger5	no	Left	MIRROR	Incompatible	-1	Larger5	6	515487	k	616	0	360542_220124_205301	232	232	1
number4Mirror	k	2.NC-C	Smaller5	Larger5	no	Right	MIRROR	Incompatible	1	Smaller5	4	517887	k	802	1	360542_220124_205301	233	233	1
number7Mirror	d	2.NC-C	Smaller5	Larger5	no	Left	MIRROR	Incompatible	-1	Larger5	7	519872	d	787	1	360542_220124_205301	234	234	1
number4	k	2.NC-C	Smaller5	Larger5	no	Right	NORMAL	Incompatible	1	Smaller5	4	521760	k	691	1	360542_220124_205301	235	235	1
number4	k	2.NC-C	Smaller5	Larger5	no	Right	NORMAL	Incompatible	1	Smaller5	4	523471	k	521	1	360542_220124_205301	236	236	1
number1	k	2.NC-C	Smaller5	Larger5	no	Right	NORMAL	Incompatible	1	Smaller5	1	525231	k	564	1	360542_220124_205301	237	237	1
number3	k	2.NC-C	Smaller5	Larger5	no	Right	NORMAL	Incompatible	1	Smaller5	3	526975	k	558	1	360542_220124_205301	238	238	1
number6	d	2.NC-C	Smaller5	Larger5	no	Left	NORMAL	Incompatible	-1	Larger5	6	528719	d	552	1	360542_220124_205301	239	239	1
number9	d	2.NC-C	Smaller5	Larger5	no	Left	NORMAL	Incompatible	-1	Larger5	9	530511	d	595	1	360542_220124_205301	240	240	1
number7	d	2.NC-C	Smaller5	Larger5	no	Left	NORMAL	Incompatible	-1	Larger5	7	532639	d	940	1	360542_220124_205301	241	241	1
number7	d	2.NC-C	Smaller5	Larger5	no	Left	NORMAL	Incompatible	-1	Larger5	7	534289	d	456	1	360542_220124_205301	242	242	1
number1Mirror	k	2.NC-C	Smaller5	Larger5	no	Right	MIRROR	Incompatible	1	Smaller5	1	536014	k	532	1	360542_220124_205301	243	243	1
number9Mirror	d	2.NC-C	Smaller5	Larger5	no	Left	MIRROR	Incompatible	-1	Larger5	9	537727	d	529	1	360542_220124_205301	244	244	1
number6Mirror	d	2.NC-C	Smaller5	Larger5	no	Left	MIRROR	Incompatible	-1	Larger5	6	539423	d	509	1	360542_220124_205301	245	245	1
number4	k	2.NC-C	Smaller5	Larger5	no	Right	NORMAL	Incompatible	1	Smaller5	4	541167	k	553	1	360542_220124_205301	246	246	1
number7Mirror	d	2.NC-C	Smaller5	Larger5	no	Left	MIRROR	Incompatible	-1	Larger5	7	542896	d	532	1	360542_220124_205301	247	247	1
number9	d	2.NC-C	Smaller5	Larger5	no	Left	NORMAL	Incompatible	-1	Larger5	9	544672	d	591	1	360542_220124_205301	248	248	1
number4Mirror	k	2.NC-C	Smaller5	Larger5	no	Right	MIRROR	Incompatible	1	Smaller5	4	546383	k	520	1	360542_220124_205301	249	249	1
number3	k	2.NC-C	Smaller5	Larger5	no	Right	NORMAL	Incompatible	1	Smaller5	3	548159	k	579	1	360542_220124_205301	250	250	1
number6	d	2.NC-C	Smaller5	Larger5	no	Left	NORMAL	Incompatible	-1	Larger5	6	549919	d	573	1	360542_220124_205301	251	251	1
number1	k	2.NC-C	Smaller5	Larger5	no	Right	NORMAL	Incompatible	1	Smaller5	1	551583	k	471	1	360542_220124_205301	252	252	1
number4Mirror	k	2.NC-C	Smaller5	Larger5	no	Right	MIRROR	Incompatible	1	Smaller5	4	553232	k	453	1	360542_220124_205301	253	253	1
number7	d	2.NC-C	Smaller5	Larger5	no	Left	NORMAL	Incompatible	-1	Larger5	7	554926	d	498	1	360542_220124_205301	254	254	1
number9Mirror	d	2.NC-C	Smaller5	Larger5	no	Left	MIRROR	Incompatible	-1	Larger5	9	556783	d	671	1	360542_220124_205301	255	255	1
number6Mirror	d	2.NC-C	Smaller5	Larger5	no	Left	MIRROR	Incompatible	-1	Larger5	6	558640	d	662	1	360542_220124_205301	256	256	1
number6	d	2.NC-C	Smaller5	Larger5	no	Left	NORMAL	Incompatible	-1	Larger5	6	561055	d	1228	1	360542_220124_205301	257	257	1
number3Mirror	k	2.NC-C	Smaller5	Larger5	no	Right	MIRROR	Incompatible	1	Smaller5	3	562719	k	476	1	360542_220124_205301	258	258	1
number1	k	2.NC-C	Smaller5	Larger5	no	Right	NORMAL	Incompatible	1	Smaller5	1	564448	k	538	1	360542_220124_205301	259	259	1
number9Mirror	d	2.NC-C	Smaller5	Larger5	no	Left	MIRROR	Incompatible	-1	Larger5	9	566256	d	613	1	360542_220124_205301	260	260	1
number6Mirror	d	2.NC-C	Smaller5	Larger5	no	Left	MIRROR	Incompatible	-1	Larger5	6	567983	d	540	1	360542_220124_205301	261	261	1
number4Mirror	k	2.NC-C	Smaller5	Larger5	no	Right	MIRROR	Incompatible	1	Smaller5	4	569647	k	471	1	360542_220124_205301	262	262	1
number3Mirror	k	2.NC-C	Smaller5	Larger5	no	Right	MIRROR	Incompatible	1	Smaller5	3	571311	k	469	1	360542_220124_205301	263	263	1
number9	d	2.NC-C	Smaller5	Larger5	no	Left	NORMAL	Incompatible	-1	Larger5	9	573104	d	596	1	360542_220124_205301	264	264	1
number7Mirror	k	2.NC-C	Smaller5	Larger5	no	Right	MIRROR	Compatible	-1	Larger5	7	686288	k	1233	1	360542_220124_205301	289	25	2
number4	d	2.NC-C	Smaller5	Larger5	no	Left	NORMAL	Compatible	1	Smaller5	4	688111	d	624	1	360542_220124_205301	290	26	2
number1	d	2.NC-C	Smaller5	Larger5	no	Left	NORMAL	Compatible	1	Smaller5	1	689871	d	568	1	360542_220124_205301	291	27	2
number3	d	2.NC-C	Smaller5	Larger5	no	Left	NORMAL	Compatible	1	Smaller5	3	691615	d	546	1	360542_220124_205301	292	28	2
number4Mirror	d	2.NC-C	Smaller5	Larger5	no	Left	MIRROR	Compatible	1	Smaller5	4	693263	d	460	1	360542_220124_205301	293	29	2
number1Mirror	d	2.NC-C	Smaller5	Larger5	no	Left	MIRROR	Compatible	1	Smaller5	1	694896	d	444	1	360542_220124_205301	294	30	2
number7	k	2.NC-C	Smaller5	Larger5	no	Right	NORMAL	Compatible	-1	Larger5	7	696608	k	522	1	360542_220124_205301	295	31	2
number1	d	2.NC-C	Smaller5	Larger5	no	Left	NORMAL	Compatible	1	Smaller5	1	698271	d	469	1	360542_220124_205301	296	32	2
number9Mirror	k	2.NC-C	Smaller5	Larger5	no	Right	MIRROR	Compatible	-1	Larger5	9	700239	k	771	1	360542_220124_205301	297	33	2
number6Mirror	k	2.NC-C	Smaller5	Larger5	no	Right	MIRROR	Compatible	-1	Larger5	6	701999	k	564	1	360542_220124_205301	298	34	2
number6Mirror	k	2.NC-C	Smaller5	Larger5	no	Right	MIRROR	Compatible	-1	Larger5	6	703599	k	415	1	360542_220124_205301	299	35	2
number9	k	2.NC-C	Smaller5	Larger5	no	Right	NORMAL	Compatible	-1	Larger5	9	705296	k	512	1	360542_220124_205301	300	36	2
number7Mirror	k	2.NC-C	Smaller5	Larger5	no	Right	MIRROR	Compatible	-1	Larger5	7	706927	k	443	1	360542_220124_205301	301	37	2
number3Mirror	d	2.NC-C	Smaller5	Larger5	no	Left	MIRROR	Compatible	1	Smaller5	3	708623	d	506	1	360542_220124_205301	302	38	2
number3Mirror	d	2.NC-C	Smaller5	Larger5	no	Left	MIRROR	Compatible	1	Smaller5	3	710287	d	471	1	360542_220124_205301	303	39	2
number1	d	2.NC-C	Smaller5	Larger5	no	Left	NORMAL	Compatible	1	Smaller5	1	711967	d	484	1	360542_220124_205301	304	40	2
number7Mirror	k	2.NC-C	Smaller5	Larger5	no	Right	MIRROR	Compatible	-1	Larger5	7	713663	k	497	1	360542_220124_205301	305	41	2
number3Mirror	d	2.NC-C	Smaller5	Larger5	no	Left	MIRROR	Compatible	1	Smaller5	3	715344	d	495	1	360542_220124_205301	306	42	2
number7	k	2.NC-C	Smaller5	Larger5	no	Right	NORMAL	Compatible	-1	Larger5	7	716975	k	444	1	360542_220124_205301	307	43	2
number6	k	2.NC-C	Smaller5	Larger5	no	Right	NORMAL	Compatible	-1	Larger5	6	718655	k	490	1	360542_220124_205301	308	44	2
number1Mirror	d	2.NC-C	Smaller5	Larger5	no	Left	MIRROR	Compatible	1	Smaller5	1	720319	d	471	1	360542_220124_205301	309	45	2
number4Mirror	d	2.NC-C	Smaller5	Larger5	no	Left	MIRROR	Compatible	1	Smaller5	4	721999	d	484	1	360542_220124_205301	310	46	2
number7Mirror	k	2.NC-C	Smaller5	Larger5	no	Right	MIRROR	Compatible	-1	Larger5	7	723839	k	642	1	360542_220124_205301	311	47	2
number1Mirror	d	2.NC-C	Smaller5	Larger5	no	Left	MIRROR	Compatible	1	Smaller5	1	725521	d	491	1	360542_220124_205301	312	48	2
number1Mirror	d	2.NC-C	Smaller5	Larger5	no	Left	MIRROR	Compatible	1	Smaller5	1	727172	d	459	1	360542_220124_205301	313	49	2
number1Mirror	d	2.NC-C	Smaller5	Larger5	no	Left	MIRROR	Compatible	1	Smaller5	1	728830	d	467	1	360542_220124_205301	314	50	2
number1	d	2.NC-C	Smaller5	Larger5	no	Left	NORMAL	Compatible	1	Smaller5	1	730495	d	466	1	360542_220124_205301	315	51	2
number4	d	2.NC-C	Smaller5	Larger5	no	Left	NORMAL	Compatible	1	Smaller5	4	732607	d	928	1	360542_220124_205301	316	52	2
number1Mirror	d	2.NC-C	Smaller5	Larger5	no	Left	MIRROR	Compatible	1	Smaller5	1	734239	d	444	1	360542_220124_205301	317	53	2
number6	k	2.NC-C	Smaller5	Larger5	no	Right	NORMAL	Compatible	-1	Larger5	6	735953	k	524	1	360542_220124_205301	318	54	2
number9Mirror	k	2.NC-C	Smaller5	Larger5	no	Right	MIRROR	Compatible	-1	Larger5	9	737599	k	454	1	360542_220124_205301	319	55	2
number6	k	2.NC-C	Smaller5	Larger5	no	Right	NORMAL	Compatible	-1	Larger5	6	739231	k	436	1	360542_220124_205301	320	56	2
number3	d	2.NC-C	Smaller5	Larger5	no	Left	NORMAL	Compatible	1	Smaller5	3	740894	d	467	1	360542_220124_205301	321	57	2
number4	d	2.NC-C	Smaller5	Larger5	no	Left	NORMAL	Compatible	1	Smaller5	4	742559	d	465	1	360542_220124_205301	322	58	2
number9	k	2.NC-C	Smaller5	Larger5	no	Right	NORMAL	Compatible	-1	Larger5	9	744176	k	433	1	360542_220124_205301	323	59	2
number1Mirror	d	2.NC-C	Smaller5	Larger5	no	Left	MIRROR	Compatible	1	Smaller5	1	745871	d	511	1	360542_220124_205301	324	60	2
number4Mirror	d	2.NC-C	Smaller5	Larger5	no	Left	MIRROR	Compatible	1	Smaller5	4	748000	d	940	1	360542_220124_205301	325	61	2
number4	d	2.NC-C	Smaller5	Larger5	no	Left	NORMAL	Compatible	1	Smaller5	4	749663	d	470	1	360542_220124_205301	326	62	2
number7Mirror	k	2.NC-C	Smaller5	Larger5	no	Right	MIRROR	Compatible	-1	Larger5	7	751376	k	517	1	360542_220124_205301	327	63	2
number3Mirror	d	2.NC-C	Smaller5	Larger5	no	Left	MIRROR	Compatible	1	Smaller5	3	753103	d	528	1	360542_220124_205301	328	64	2
number1Mirror	d	2.NC-C	Smaller5	Larger5	no	Left	MIRROR	Compatible	1	Smaller5	1	754751	d	459	1	360542_220124_205301	329	65	2
number9	k	2.NC-C	Smaller5	Larger5	no	Right	NORMAL	Compatible	-1	Larger5	9	756415	k	474	1	360542_220124_205301	330	66	2
number1	d	2.NC-C	Smaller5	Larger5	no	Left	NORMAL	Compatible	1	Smaller5	1	758240	d	632	1	360542_220124_205301	331	67	2
number1Mirror	d	2.NC-C	Smaller5	Larger5	no	Left	MIRROR	Compatible	1	Smaller5	1	760000	d	576	1	360542_220124_205301	332	68	2
number7	k	2.NC-C	Smaller5	Larger5	no	Right	NORMAL	Compatible	-1	Larger5	7	761774	k	584	1	360542_220124_205301	333	69	2
number7	k	2.NC-C	Smaller5	Larger5	no	Right	NORMAL	Compatible	-1	Larger5	7	763664	k	691	1	360542_220124_205301	334	70	2
number7Mirror	k	2.NC-C	Smaller5	Larger5	no	Right	MIRROR	Compatible	-1	Larger5	7	765376	k	520	1	360542_220124_205301	335	71	2
number9	k	2.NC-C	Smaller5	Larger5	no	Right	NORMAL	Compatible	-1	Larger5	9	767185	k	612	1	360542_220124_205301	336	72	2
number6Mirror	k	2.NC-C	Smaller5	Larger5	no	Right	MIRROR	Compatible	-1	Larger5	6	768911	k	539	1	360542_220124_205301	337	73	2
number9Mirror	k	2.NC-C	Smaller5	Larger5	no	Right	MIRROR	Compatible	-1	Larger5	9	770591	k	486	1	360542_220124_205301	338	74	2
number9	k	2.NC-C	Smaller5	Larger5	no	Right	NORMAL	Compatible	-1	Larger5	9	772207	k	419	1	360542_220124_205301	339	75	2
number4Mirror	d	2.NC-C	Smaller5	Larger5	no	Left	MIRROR	Compatible	1	Smaller5	4	773967	d	562	1	360542_220124_205301	340	76	2
number4Mirror	d	2.NC-C	Smaller5	Larger5	no	Left	MIRROR	Compatible	1	Smaller5	4	775599	d	445	1	360542_220124_205301	341	77	2
number7	k	2.NC-C	Smaller5	Larger5	no	Right	NORMAL	Compatible	-1	Larger5	7	777297	k	509	1	360542_220124_205301	342	78	2
number9	k	2.NC-C	Smaller5	Larger5	no	Right	NORMAL	Compatible	-1	Larger5	9	778944	k	457	1	360542_220124_205301	343	79	2
number4	d	2.NC-C	Smaller5	Larger5	no	Left	NORMAL	Compatible	1	Smaller5	4	780735	d	598	1	360542_220124_205301	344	80	2
number6Mirror	k	2.NC-C	Smaller5	Larger5	no	Right	MIRROR	Compatible	-1	Larger5	6	782527	k	607	1	360542_220124_205301	345	81	2
number3	d	2.NC-C	Smaller5	Larger5	no	Left	NORMAL	Compatible	1	Smaller5	3	784527	d	807	1	360542_220124_205301	346	82	2
number6	k	2.NC-C	Smaller5	Larger5	no	Right	NORMAL	Compatible	-1	Larger5	6	786319	k	599	1	360542_220124_205301	347	83	2
number9	k	2.NC-C	Smaller5	Larger5	no	Right	NORMAL	Compatible	-1	Larger5	9	788032	k	513	1	360542_220124_205301	348	84	2
number7Mirror	k	2.NC-C	Smaller5	Larger5	no	Right	MIRROR	Compatible	-1	Larger5	7	789744	k	525	1	360542_220124_205301	349	85	2
number7Mirror	k	2.NC-C	Smaller5	Larger5	no	Right	MIRROR	Compatible	-1	Larger5	7	791392	k	457	1	360542_220124_205301	350	86	2
number3	d	2.NC-C	Smaller5	Larger5	no	Left	NORMAL	Compatible	1	Smaller5	3	793088	d	504	1	360542_220124_205301	351	87	2
number9Mirror	k	2.NC-C	Smaller5	Larger5	no	Right	MIRROR	Compatible	-1	Larger5	9	794783	k	498	1	360542_220124_205301	352	88	2
number1Mirror	d	2.NC-C	Smaller5	Larger5	no	Left	MIRROR	Compatible	1	Smaller5	1	796431	d	464	1	360542_220124_205301	353	89	2
number7	k	2.NC-C	Smaller5	Larger5	no	Right	NORMAL	Compatible	-1	Larger5	7	798063	k	446	1	360542_220124_205301	354	90	2
number1Mirror	d	2.NC-C	Smaller5	Larger5	no	Left	MIRROR	Compatible	1	Smaller5	1	799680	d	429	1	360542_220124_205301	355	91	2
number3Mirror	d	2.NC-C	Smaller5	Larger5	no	Left	MIRROR	Compatible	1	Smaller5	3	801377	k	510	0	360542_220124_205301	356	92	2
number6Mirror	k	2.NC-C	Smaller5	Larger5	no	Right	MIRROR	Compatible	-1	Larger5	6	803695	k	712	1	360542_220124_205301	357	93	2
number3Mirror	d	2.NC-C	Smaller5	Larger5	no	Left	MIRROR	Compatible	1	Smaller5	3	805441	d	558	1	360542_220124_205301	358	94	2
number9Mirror	k	2.NC-C	Smaller5	Larger5	no	Right	MIRROR	Compatible	-1	Larger5	9	807391	k	759	1	360542_220124_205301	359	95	2
number7Mirror	k	2.NC-C	Smaller5	Larger5	no	Right	MIRROR	Compatible	-1	Larger5	7	809361	k	779	1	360542_220124_205301	360	96	2
number6	k	2.NC-C	Smaller5	Larger5	no	Right	NORMAL	Compatible	-1	Larger5	6	811055	k	507	1	360542_220124_205301	361	97	2
number3	d	2.NC-C	Smaller5	Larger5	no	Left	NORMAL	Compatible	1	Smaller5	3	812783	d	535	1	360542_220124_205301	362	98	2
number9	k	2.NC-C	Smaller5	Larger5	no	Right	NORMAL	Compatible	-1	Larger5	9	814542	k	561	1	360542_220124_205301	363	99	2
number9Mirror	k	2.NC-C	Smaller5	Larger5	no	Right	MIRROR	Compatible	-1	Larger5	9	816224	k	493	1	360542_220124_205301	364	100	2
number9	k	2.NC-C	Smaller5	Larger5	no	Right	NORMAL	Compatible	-1	Larger5	9	817887	k	474	1	360542_220124_205301	365	101	2
number6	k	2.NC-C	Smaller5	Larger5	no	Right	NORMAL	Compatible	-1	Larger5	6	819551	k	471	1	360542_220124_205301	366	102	2
number6	k	2.NC-C	Smaller5	Larger5	no	Right	NORMAL	Compatible	-1	Larger5	6	821215	k	469	1	360542_220124_205301	367	103	2
number6Mirror	k	2.NC-C	Smaller5	Larger5	no	Right	MIRROR	Compatible	-1	Larger5	6	822944	k	531	1	360542_220124_205301	368	104	2
number4Mirror	d	2.NC-C	Smaller5	Larger5	no	Left	MIRROR	Compatible	1	Smaller5	4	824624	d	495	1	360542_220124_205301	369	105	2
number4Mirror	d	2.NC-C	Smaller5	Larger5	no	Left	MIRROR	Compatible	1	Smaller5	4	826767	d	955	1	360542_220124_205301	370	106	2
number4	d	2.NC-C	Smaller5	Larger5	no	Left	NORMAL	Compatible	1	Smaller5	4	828415	d	454	1	360542_220124_205301	371	107	2
number9Mirror	k	2.NC-C	Smaller5	Larger5	no	Right	MIRROR	Compatible	-1	Larger5	9	830127	k	516	1	360542_220124_205301	372	108	2
number6Mirror	k	2.NC-C	Smaller5	Larger5	no	Right	MIRROR	Compatible	-1	Larger5	6	832207	k	896	1	360542_220124_205301	373	109	2
number3	d	2.NC-C	Smaller5	Larger5	no	Left	NORMAL	Compatible	1	Smaller5	3	834000	d	606	1	360542_220124_205301	374	110	2
number3Mirror	d	2.NC-C	Smaller5	Larger5	no	Left	MIRROR	Compatible	1	Smaller5	3	835679	d	485	1	360542_220124_205301	375	111	2
number7	k	2.NC-C	Smaller5	Larger5	no	Right	NORMAL	Compatible	-1	Larger5	7	837439	k	563	1	360542_220124_205301	376	112	2
number9	k	2.NC-C	Smaller5	Larger5	no	Right	NORMAL	Compatible	-1	Larger5	9	839198	k	573	1	360542_220124_205301	377	113	2
number6Mirror	k	2.NC-C	Smaller5	Larger5	no	Right	MIRROR	Compatible	-1	Larger5	6	840881	k	489	1	360542_220124_205301	378	114	2
number1	d	2.NC-C	Smaller5	Larger5	no	Left	NORMAL	Compatible	1	Smaller5	1	842687	d	612	1	360542_220124_205301	379	115	2
number1	d	2.NC-C	Smaller5	Larger5	no	Left	NORMAL	Compatible	1	Smaller5	1	844352	d	476	1	360542_220124_205301	380	116	2
number4	d	2.NC-C	Smaller5	Larger5	no	Left	NORMAL	Compatible	1	Smaller5	4	846143	d	601	1	360542_220124_205301	381	117	2
number6Mirror	k	2.NC-C	Smaller5	Larger5	no	Right	MIRROR	Compatible	-1	Larger5	6	847871	k	530	1	360542_220124_205301	382	118	2
number1	d	2.NC-C	Smaller5	Larger5	no	Left	NORMAL	Compatible	1	Smaller5	1	849503	d	446	1	360542_220124_205301	383	119	2
number7	k	2.NC-C	Smaller5	Larger5	no	Right	NORMAL	Compatible	-1	Larger5	7	851295	k	604	1	360542_220124_205301	384	120	2
number4	d	2.NC-C	Smaller5	Larger5	no	Left	NORMAL	Compatible	1	Smaller5	4	853247	d	757	1	360542_220124_205301	385	121	2
number7Mirror	k	2.NC-C	Smaller5	Larger5	no	Right	MIRROR	Compatible	-1	Larger5	7	855408	k	968	1	360542_220124_205301	386	122	2
number1Mirror	d	2.NC-C	Smaller5	Larger5	no	Left	MIRROR	Compatible	1	Smaller5	1	857135	d	529	1	360542_220124_205301	387	123	2
number3Mirror	d	2.NC-C	Smaller5	Larger5	no	Left	MIRROR	Compatible	1	Smaller5	3	858785	d	462	1	360542_220124_205301	388	124	2
number7Mirror	k	2.NC-C	Smaller5	Larger5	no	Right	MIRROR	Compatible	-1	Larger5	7	860463	k	491	1	360542_220124_205301	389	125	2
number7Mirror	k	2.NC-C	Smaller5	Larger5	no	Right	MIRROR	Compatible	-1	Larger5	7	862094	k	439	1	360542_220124_205301	390	126	2
number7Mirror	k	2.NC-C	Smaller5	Larger5	no	Right	MIRROR	Compatible	-1	Larger5	7	863743	k	455	1	360542_220124_205301	391	127	2
number3Mirror	d	2.NC-C	Smaller5	Larger5	no	Left	MIRROR	Compatible	1	Smaller5	3	865440	d	502	1	360542_220124_205301	392	128	2
number6Mirror	k	2.NC-C	Smaller5	Larger5	no	Right	MIRROR	Compatible	-1	Larger5	6	867199	k	562	1	360542_220124_205301	393	129	2
number4	d	2.NC-C	Smaller5	Larger5	no	Left	NORMAL	Compatible	1	Smaller5	4	868831	d	444	1	360542_220124_205301	394	130	2
number6Mirror	k	2.NC-C	Smaller5	Larger5	no	Right	MIRROR	Compatible	-1	Larger5	6	870495	k	475	1	360542_220124_205301	395	131	2
number1	d	2.NC-C	Smaller5	Larger5	no	Left	NORMAL	Compatible	1	Smaller5	1	872335	d	648	1	360542_220124_205301	396	132	2
number4	d	2.NC-C	Smaller5	Larger5	no	Left	NORMAL	Compatible	1	Smaller5	4	873967	d	447	1	360542_220124_205301	397	133	2
number3Mirror	d	2.NC-C	Smaller5	Larger5	no	Left	MIRROR	Compatible	1	Smaller5	3	875664	d	511	1	360542_220124_205301	398	134	2
number7	k	2.NC-C	Smaller5	Larger5	no	Right	NORMAL	Compatible	-1	Larger5	7	877535	k	683	1	360542_220124_205301	399	135	2
number9	k	2.NC-C	Smaller5	Larger5	no	Right	NORMAL	Compatible	-1	Larger5	9	879265	k	546	1	360542_220124_205301	400	136	2
number9Mirror	k	2.NC-C	Smaller5	Larger5	no	Right	MIRROR	Compatible	-1	Larger5	9	880927	k	475	1	360542_220124_205301	401	137	2
number9Mirror	k	2.NC-C	Smaller5	Larger5	no	Right	MIRROR	Compatible	-1	Larger5	9	882639	k	521	1	360542_220124_205301	402	138	2
number6Mirror	k	2.NC-C	Smaller5	Larger5	no	Right	MIRROR	Compatible	-1	Larger5	6	884799	k	964	1	360542_220124_205301	403	139	2
number3	d	2.NC-C	Smaller5	Larger5	no	Left	NORMAL	Compatible	1	Smaller5	3	886592	d	608	1	360542_220124_205301	404	140	2
number6	k	2.NC-C	Smaller5	Larger5	no	Right	NORMAL	Compatible	-1	Larger5	6	888303	k	518	1	360542_220124_205301	405	141	2
number1	d	2.NC-C	Smaller5	Larger5	no	Left	NORMAL	Compatible	1	Smaller5	1	889983	d	482	1	360542_220124_205301	406	142	2
number3Mirror	d	2.NC-C	Smaller5	Larger5	no	Left	MIRROR	Compatible	1	Smaller5	3	891807	d	641	1	360542_220124_205301	407	143	2
number9Mirror	k	2.NC-C	Smaller5	Larger5	no	Right	MIRROR	Compatible	-1	Larger5	9	893535	k	535	1	360542_220124_205301	408	144	2
number6	k	2.NC-C	Smaller5	Larger5	no	Right	NORMAL	Compatible	-1	Larger5	6	895263	k	531	1	360542_220124_205301	409	145	2
number6	k	2.NC-C	Smaller5	Larger5	no	Right	NORMAL	Compatible	-1	Larger5	6	896993	k	544	1	360542_220124_205301	410	146	2
number3	d	2.NC-C	Smaller5	Larger5	no	Left	NORMAL	Compatible	1	Smaller5	3	898703	d	521	1	360542_220124_205301	411	147	2
number9	k	2.NC-C	Smaller5	Larger5	no	Right	NORMAL	Compatible	-1	Larger5	9	900399	k	501	1	360542_220124_205301	412	148	2
number1	d	2.NC-C	Smaller5	Larger5	no	Left	NORMAL	Compatible	1	Smaller5	1	902111	d	513	1	360542_220124_205301	413	149	2
number1	d	2.NC-C	Smaller5	Larger5	no	Left	NORMAL	Compatible	1	Smaller5	1	903728	d	431	1	360542_220124_205301	414	150	2
number6Mirror	k	2.NC-C	Smaller5	Larger5	no	Right	MIRROR	Compatible	-1	Larger5	6	905407	k	493	1	360542_220124_205301	415	151	2
number6	k	2.NC-C	Smaller5	Larger5	no	Right	NORMAL	Compatible	-1	Larger5	6	907104	k	507	1	360542_220124_205301	416	152	2
number9Mirror	k	2.NC-C	Smaller5	Larger5	no	Right	MIRROR	Compatible	-1	Larger5	9	908895	k	598	1	360542_220124_205301	417	153	2
number9	k	2.NC-C	Smaller5	Larger5	no	Right	NORMAL	Compatible	-1	Larger5	9	910719	k	639	1	360542_220124_205301	418	154	2
number3Mirror	d	2.NC-C	Smaller5	Larger5	no	Left	MIRROR	Compatible	1	Smaller5	3	912399	d	486	1	360542_220124_205301	419	155	2
number4	d	2.NC-C	Smaller5	Larger5	no	Left	NORMAL	Compatible	1	Smaller5	4	914144	d	548	1	360542_220124_205301	420	156	2
number9	k	2.NC-C	Smaller5	Larger5	no	Right	NORMAL	Compatible	-1	Larger5	9	915919	k	590	1	360542_220124_205301	421	157	2
number4Mirror	d	2.NC-C	Smaller5	Larger5	no	Left	MIRROR	Compatible	1	Smaller5	4	917744	d	632	1	360542_220124_205301	422	158	2
number1	d	2.NC-C	Smaller5	Larger5	no	Left	NORMAL	Compatible	1	Smaller5	1	919471	d	543	1	360542_220124_205301	423	159	2
number6Mirror	k	2.NC-C	Smaller5	Larger5	no	Right	MIRROR	Compatible	-1	Larger5	6	921247	k	586	1	360542_220124_205301	424	160	2
number4Mirror	d	2.NC-C	Smaller5	Larger5	no	Left	MIRROR	Compatible	1	Smaller5	4	923008	d	564	1	360542_220124_205301	425	161	2
number9Mirror	k	2.NC-C	Smaller5	Larger5	no	Right	MIRROR	Compatible	-1	Larger5	9	924688	k	494	1	360542_220124_205301	426	162	2
number9	k	2.NC-C	Smaller5	Larger5	no	Right	NORMAL	Compatible	-1	Larger5	9	926415	k	538	1	360542_220124_205301	427	163	2
number6	k	2.NC-C	Smaller5	Larger5	no	Right	NORMAL	Compatible	-1	Larger5	6	928976	k	1366	1	360542_220124_205301	428	164	2
number9Mirror	k	2.NC-C	Smaller5	Larger5	no	Right	MIRROR	Compatible	-1	Larger5	9	930703	k	544	1	360542_220124_205301	429	165	2
number7	k	2.NC-C	Smaller5	Larger5	no	Right	NORMAL	Compatible	-1	Larger5	7	932415	k	522	1	360542_220124_205301	430	166	2
number3Mirror	d	2.NC-C	Smaller5	Larger5	no	Left	MIRROR	Compatible	1	Smaller5	3	934127	d	518	1	360542_220124_205301	431	167	2
number6	k	2.NC-C	Smaller5	Larger5	no	Right	NORMAL	Compatible	-1	Larger5	6	935791	k	466	1	360542_220124_205301	432	168	2
number6	k	2.NC-C	Smaller5	Larger5	no	Right	NORMAL	Compatible	-1	Larger5	6	937407	k	433	1	360542_220124_205301	433	169	2
number4Mirror	d	2.NC-C	Smaller5	Larger5	no	Left	MIRROR	Compatible	1	Smaller5	4	939169	d	577	1	360542_220124_205301	434	170	2
number9Mirror	k	2.NC-C	Smaller5	Larger5	no	Right	MIRROR	Compatible	-1	Larger5	9	940815	k	458	1	360542_220124_205301	435	171	2
number1Mirror	d	2.NC-C	Smaller5	Larger5	no	Left	MIRROR	Compatible	1	Smaller5	1	942543	d	536	1	360542_220124_205301	436	172	2
number6Mirror	k	2.NC-C	Smaller5	Larger5	no	Right	MIRROR	Compatible	-1	Larger5	6	944208	k	467	1	360542_220124_205301	437	173	2
number7Mirror	k	2.NC-C	Smaller5	Larger5	no	Right	MIRROR	Compatible	-1	Larger5	7	945871	k	464	1	360542_220124_205301	438	174	2
number4	d	2.NC-C	Smaller5	Larger5	no	Left	NORMAL	Compatible	1	Smaller5	4	947519	d	463	1	360542_220124_205301	439	175	2
number1Mirror	d	2.NC-C	Smaller5	Larger5	no	Left	MIRROR	Compatible	1	Smaller5	1	949248	d	542	1	360542_220124_205301	440	176	2
number3	d	2.NC-C	Smaller5	Larger5	no	Left	NORMAL	Compatible	1	Smaller5	3	951169	d	730	1	360542_220124_205301	441	177	2
number3	d	2.NC-C	Smaller5	Larger5	no	Left	NORMAL	Compatible	1	Smaller5	3	952799	d	444	1	360542_220124_205301	442	178	2
number1Mirror	d	2.NC-C	Smaller5	Larger5	no	Left	MIRROR	Compatible	1	Smaller5	1	954479	d	490	1	360542_220124_205301	443	179	2
number6	k	2.NC-C	Smaller5	Larger5	no	Right	NORMAL	Compatible	-1	Larger5	6	956175	k	504	1	360542_220124_205301	444	180	2
number6	k	2.NC-C	Smaller5	Larger5	no	Right	NORMAL	Compatible	-1	Larger5	6	957822	k	451	1	360542_220124_205301	445	181	2
number7Mirror	k	2.NC-C	Smaller5	Larger5	no	Right	MIRROR	Compatible	-1	Larger5	7	959520	k	499	1	360542_220124_205301	446	182	2
number9	k	2.NC-C	Smaller5	Larger5	no	Right	NORMAL	Compatible	-1	Larger5	9	961151	k	447	1	360542_220124_205301	447	183	2
number7Mirror	k	2.NC-C	Smaller5	Larger5	no	Right	MIRROR	Compatible	-1	Larger5	7	962815	k	478	1	360542_220124_205301	448	184	2
number1	d	2.NC-C	Smaller5	Larger5	no	Left	NORMAL	Compatible	1	Smaller5	1	964495	d	492	1	360542_220124_205301	449	185	2
number3	d	2.NC-C	Smaller5	Larger5	no	Left	NORMAL	Compatible	1	Smaller5	3	966302	d	616	1	360542_220124_205301	450	186	2
number1	d	2.NC-C	Smaller5	Larger5	no	Left	NORMAL	Compatible	1	Smaller5	1	967983	d	481	1	360542_220124_205301	451	187	2
number6Mirror	k	2.NC-C	Smaller5	Larger5	no	Right	MIRROR	Compatible	-1	Larger5	6	969824	k	655	1	360542_220124_205301	452	188	2
number1Mirror	d	2.NC-C	Smaller5	Larger5	no	Left	MIRROR	Compatible	1	Smaller5	1	971487	d	469	1	360542_220124_205301	453	189	2
number7	k	2.NC-C	Smaller5	Larger5	no	Right	NORMAL	Compatible	-1	Larger5	7	973231	k	546	1	360542_220124_205301	454	190	2
number1Mirror	d	2.NC-C	Smaller5	Larger5	no	Left	MIRROR	Compatible	1	Smaller5	1	974927	d	509	1	360542_220124_205301	455	191	2
number4	d	2.NC-C	Smaller5	Larger5	no	Left	NORMAL	Compatible	1	Smaller5	4	976831	d	714	1	360542_220124_205301	456	192	2
number7Mirror	k	2.NC-C	Smaller5	Larger5	no	Right	MIRROR	Compatible	-1	Larger5	7	978561	k	543	1	360542_220124_205301	457	193	2
number1	d	2.NC-C	Smaller5	Larger5	no	Left	NORMAL	Compatible	1	Smaller5	1	980256	d	505	1	360542_220124_205301	458	194	2
number9Mirror	k	2.NC-C	Smaller5	Larger5	no	Right	MIRROR	Compatible	-1	Larger5	9	981951	k	501	1	360542_220124_205301	459	195	2
number6	k	2.NC-C	Smaller5	Larger5	no	Right	NORMAL	Compatible	-1	Larger5	6	983599	k	449	1	360542_220124_205301	460	196	2
number7Mirror	k	2.NC-C	Smaller5	Larger5	no	Right	MIRROR	Compatible	-1	Larger5	7	985295	k	512	1	360542_220124_205301	461	197	2
number7	k	2.NC-C	Smaller5	Larger5	no	Right	NORMAL	Compatible	-1	Larger5	7	986943	k	461	1	360542_220124_205301	462	198	2
number3Mirror	d	2.NC-C	Smaller5	Larger5	no	Left	MIRROR	Compatible	1	Smaller5	3	988735	d	603	1	360542_220124_205301	463	199	2
number6	k	2.NC-C	Smaller5	Larger5	no	Right	NORMAL	Compatible	-1	Larger5	6	990417	k	485	1	360542_220124_205301	464	200	2
number3Mirror	d	2.NC-C	Smaller5	Larger5	no	Left	MIRROR	Compatible	1	Smaller5	3	992094	d	480	1	360542_220124_205301	465	201	2
number4Mirror	d	2.NC-C	Smaller5	Larger5	no	Left	MIRROR	Compatible	1	Smaller5	4	993790	d	509	1	360542_220124_205301	466	202	2
number4	d	2.NC-C	Smaller5	Larger5	no	Left	NORMAL	Compatible	1	Smaller5	4	995487	d	507	1	360542_220124_205301	467	203	2
number4	d	2.NC-C	Smaller5	Larger5	no	Left	NORMAL	Compatible	1	Smaller5	4	997118	d	438	1	360542_220124_205301	468	204	2
number3Mirror	d	2.NC-C	Smaller5	Larger5	no	Left	MIRROR	Compatible	1	Smaller5	3	998848	d	534	1	360542_220124_205301	469	205	2
number7	k	2.NC-C	Smaller5	Larger5	no	Right	NORMAL	Compatible	-1	Larger5	7	1000688	k	641	1	360542_220124_205301	470	206	2
number1	d	2.NC-C	Smaller5	Larger5	no	Left	NORMAL	Compatible	1	Smaller5	1	1002480	d	600	1	360542_220124_205301	471	207	2
number4	d	2.NC-C	Smaller5	Larger5	no	Left	NORMAL	Compatible	1	Smaller5	4	1004847	d	1168	1	360542_220124_205301	472	208	2
number1	d	2.NC-C	Smaller5	Larger5	no	Left	NORMAL	Compatible	1	Smaller5	1	1006543	d	498	1	360542_220124_205301	473	209	2
number9Mirror	k	2.NC-C	Smaller5	Larger5	no	Right	MIRROR	Compatible	-1	Larger5	9	1008225	k	496	1	360542_220124_205301	474	210	2
number6	k	2.NC-C	Smaller5	Larger5	no	Right	NORMAL	Compatible	-1	Larger5	6	1009921	k	509	1	360542_220124_205301	475	211	2
number7	k	2.NC-C	Smaller5	Larger5	no	Right	NORMAL	Compatible	-1	Larger5	7	1011648	k	536	1	360542_220124_205301	476	212	2
number4Mirror	d	2.NC-C	Smaller5	Larger5	no	Left	MIRROR	Compatible	1	Smaller5	4	1013359	d	515	1	360542_220124_205301	477	213	2
number7	k	2.NC-C	Smaller5	Larger5	no	Right	NORMAL	Compatible	-1	Larger5	7	1015039	k	495	1	360542_220124_205301	478	214	2
number7	k	2.NC-C	Smaller5	Larger5	no	Right	NORMAL	Compatible	-1	Larger5	7	1016719	k	492	1	360542_220124_205301	479	215	2
number4	d	2.NC-C	Smaller5	Larger5	no	Left	NORMAL	Compatible	1	Smaller5	4	1018436	d	526	1	360542_220124_205301	480	216	2
number7	k	2.NC-C	Smaller5	Larger5	no	Right	NORMAL	Compatible	-1	Larger5	7	1020192	k	566	1	360542_220124_205301	481	217	2
number4Mirror	d	2.NC-C	Smaller5	Larger5	no	Left	MIRROR	Compatible	1	Smaller5	4	1022048	d	672	1	360542_220124_205301	482	218	2
number1	d	2.NC-C	Smaller5	Larger5	no	Left	NORMAL	Compatible	1	Smaller5	1	1023807	d	565	1	360542_220124_205301	483	219	2
number3	d	2.NC-C	Smaller5	Larger5	no	Left	NORMAL	Compatible	1	Smaller5	3	1025569	d	577	1	360542_220124_205301	484	220	2
number1	d	2.NC-C	Smaller5	Larger5	no	Left	NORMAL	Compatible	1	Smaller5	1	1027279	d	521	1	360542_220124_205301	485	221	2
number3	d	2.NC-C	Smaller5	Larger5	no	Left	NORMAL	Compatible	1	Smaller5	3	1029185	d	710	1	360542_220124_205301	486	222	2
number7	k	2.NC-C	Smaller5	Larger5	no	Right	NORMAL	Compatible	-1	Larger5	7	1031022	k	648	1	360542_220124_205301	487	223	2
number3	d	2.NC-C	Smaller5	Larger5	no	Left	NORMAL	Compatible	1	Smaller5	3	1032784	d	577	1	360542_220124_205301	488	224	2
number4	d	2.NC-C	Smaller5	Larger5	no	Left	NORMAL	Compatible	1	Smaller5	4	1034912	d	938	1	360542_220124_205301	489	225	2
number3	d	2.NC-C	Smaller5	Larger5	no	Left	NORMAL	Compatible	1	Smaller5	3	1036689	d	582	1	360542_220124_205301	490	226	2
number6Mirror	k	2.NC-C	Smaller5	Larger5	no	Right	MIRROR	Compatible	-1	Larger5	6	1038751	k	878	1	360542_220124_205301	491	227	2
number9Mirror	k	2.NC-C	Smaller5	Larger5	no	Right	MIRROR	Compatible	-1	Larger5	9	1040529	k	590	1	360542_220124_205301	492	228	2
number4Mirror	d	2.NC-C	Smaller5	Larger5	no	Left	MIRROR	Compatible	1	Smaller5	4	1042256	d	533	1	360542_220124_205301	493	229	2
number1Mirror	d	2.NC-C	Smaller5	Larger5	no	Left	MIRROR	Compatible	1	Smaller5	1	1043920	d	464	1	360542_220124_205301	494	230	2
number4Mirror	d	2.NC-C	Smaller5	Larger5	no	Left	MIRROR	Compatible	1	Smaller5	4	1045631	d	527	1	360542_220124_205301	495	231	2
number1Mirror	d	2.NC-C	Smaller5	Larger5	no	Left	MIRROR	Compatible	1	Smaller5	1	1047279	d	458	1	360542_220124_205301	496	232	2
number4Mirror	d	2.NC-C	Smaller5	Larger5	no	Left	MIRROR	Compatible	1	Smaller5	4	1048911	d	440	1	360542_220124_205301	497	233	2
number9	k	2.NC-C	Smaller5	Larger5	no	Right	NORMAL	Compatible	-1	Larger5	9	1050591	k	487	1	360542_220124_205301	498	234	2
number9Mirror	k	2.NC-C	Smaller5	Larger5	no	Right	MIRROR	Compatible	-1	Larger5	9	1052288	k	500	1	360542_220124_205301	499	235	2
number4Mirror	d	2.NC-C	Smaller5	Larger5	no	Left	MIRROR	Compatible	1	Smaller5	4	1054016	d	529	1	360542_220124_205301	500	236	2
number4Mirror	d	2.NC-C	Smaller5	Larger5	no	Left	MIRROR	Compatible	1	Smaller5	4	1055632	d	429	1	360542_220124_205301	501	237	2
number3	d	2.NC-C	Smaller5	Larger5	no	Left	NORMAL	Compatible	1	Smaller5	3	1057535	d	716	1	360542_220124_205301	502	238	2
number9	k	2.NC-C	Smaller5	Larger5	no	Right	NORMAL	Compatible	-1	Larger5	9	1059231	k	512	1	360542_220124_205301	503	239	2
number1Mirror	d	2.NC-C	Smaller5	Larger5	no	Left	MIRROR	Compatible	1	Smaller5	1	1061024	d	605	1	360542_220124_205301	504	240	2
number7	k	2.NC-C	Smaller5	Larger5	no	Right	NORMAL	Compatible	-1	Larger5	7	1062703	k	485	1	360542_220124_205301	505	241	2
number6Mirror	k	2.NC-C	Smaller5	Larger5	no	Right	MIRROR	Compatible	-1	Larger5	6	1064367	k	465	1	360542_220124_205301	506	242	2
number9Mirror	k	2.NC-C	Smaller5	Larger5	no	Right	MIRROR	Compatible	-1	Larger5	9	1066048	k	497	1	360542_220124_205301	507	243	2
number3Mirror	d	2.NC-C	Smaller5	Larger5	no	Left	MIRROR	Compatible	1	Smaller5	3	1067791	d	556	1	360542_220124_205301	508	244	2
number7	k	2.NC-C	Smaller5	Larger5	no	Right	NORMAL	Compatible	-1	Larger5	7	1069519	k	535	1	360542_220124_205301	509	245	2
number4Mirror	d	2.NC-C	Smaller5	Larger5	no	Left	MIRROR	Compatible	1	Smaller5	4	1071151	d	434	1	360542_220124_205301	510	246	2
number7Mirror	k	2.NC-C	Smaller5	Larger5	no	Right	MIRROR	Compatible	-1	Larger5	7	1072816	k	466	1	360542_220124_205301	511	247	2
number4	d	2.NC-C	Smaller5	Larger5	no	Left	NORMAL	Compatible	1	Smaller5	4	1074529	d	530	1	360542_220124_205301	512	248	2
number4	d	2.NC-C	Smaller5	Larger5	no	Left	NORMAL	Compatible	1	Smaller5	4	1076463	d	747	1	360542_220124_205301	513	249	2
number3	d	2.NC-C	Smaller5	Larger5	no	Left	NORMAL	Compatible	1	Smaller5	3	1078303	d	654	1	360542_220124_205301	514	250	2
number6Mirror	k	2.NC-C	Smaller5	Larger5	no	Right	MIRROR	Compatible	-1	Larger5	6	1080079	k	581	1	360542_220124_205301	515	251	2
number3	d	2.NC-C	Smaller5	Larger5	no	Left	NORMAL	Compatible	1	Smaller5	3	1081807	d	542	1	360542_220124_205301	516	252	2
number3	d	2.NC-C	Smaller5	Larger5	no	Left	NORMAL	Compatible	1	Smaller5	3	1083439	d	441	1	360542_220124_205301	517	253	2
number3Mirror	d	2.NC-C	Smaller5	Larger5	no	Left	MIRROR	Compatible	1	Smaller5	3	1085072	d	441	1	360542_220124_205301	518	254	2
number3	d	2.NC-C	Smaller5	Larger5	no	Left	NORMAL	Compatible	1	Smaller5	3	1086734	d	471	1	360542_220124_205301	519	255	2
number7Mirror	k	2.NC-C	Smaller5	Larger5	no	Right	MIRROR	Compatible	-1	Larger5	7	1088480	k	549	1	360542_220124_205301	520	256	2
number9	k	2.NC-C	Smaller5	Larger5	no	Right	NORMAL	Compatible	-1	Larger5	9	1090127	k	464	1	360542_220124_205301	521	257	2
number4Mirror	d	2.NC-C	Smaller5	Larger5	no	Left	MIRROR	Compatible	1	Smaller5	4	1091839	d	526	1	360542_220124_205301	522	258	2
number3Mirror	d	2.NC-C	Smaller5	Larger5	no	Left	MIRROR	Compatible	1	Smaller5	3	1093487	d	457	1	360542_220124_205301	523	259	2
number6Mirror	k	2.NC-C	Smaller5	Larger5	no	Right	MIRROR	Compatible	-1	Larger5	6	1095376	k	697	1	360542_220124_205301	524	260	2
number9Mirror	k	2.NC-C	Smaller5	Larger5	no	Right	MIRROR	Compatible	-1	Larger5	9	1097007	k	446	1	360542_220124_205301	525	261	2
number6	k	2.NC-C	Smaller5	Larger5	no	Right	NORMAL	Compatible	-1	Larger5	6	1098641	k	445	1	360542_220124_205301	526	262	2
number3Mirror	d	2.NC-C	Smaller5	Larger5	no	Left	MIRROR	Compatible	1	Smaller5	3	1100353	d	525	1	360542_220124_205301	527	263	2
number9	k	2.NC-C	Smaller5	Larger5	no	Right	NORMAL	Compatible	-1	Larger5	9	1102031	k	486	1	360542_220124_205301	528	264	2
number6	d	2.NC-C	Smaller5	Larger5	no	Left	NORMAL	Incompatible	-1	Larger5	6	151456	d	2102	1	360542_220124_231109	25	25	1
number4Mirror	k	2.NC-C	Smaller5	Larger5	no	Right	MIRROR	Incompatible	1	Smaller5	4	153700	k	1047	1	360542_220124_231109	26	26	1
number1	k	2.NC-C	Smaller5	Larger5	no	Right	NORMAL	Incompatible	1	Smaller5	1	156352	k	1466	1	360542_220124_231109	27	27	1
number3	k	2.NC-C	Smaller5	Larger5	no	Right	NORMAL	Incompatible	1	Smaller5	3	158375	k	839	1	360542_220124_231109	28	28	1
number1Mirror	k	2.NC-C	Smaller5	Larger5	no	Right	MIRROR	Incompatible	1	Smaller5	1	160270	k	700	1	360542_220124_231109	29	29	1
number7	d	2.NC-C	Smaller5	Larger5	no	Left	NORMAL	Incompatible	-1	Larger5	7	162177	d	707	1	360542_220124_231109	30	30	1
number4	k	2.NC-C	Smaller5	Larger5	no	Right	NORMAL	Incompatible	1	Smaller5	4	164043	k	674	1	360542_220124_231109	31	31	1
number3Mirror	k	2.NC-C	Smaller5	Larger5	no	Right	MIRROR	Incompatible	1	Smaller5	3	165982	k	745	1	360542_220124_231109	32	32	1
number1Mirror	k	2.NC-C	Smaller5	Larger5	no	Right	MIRROR	Incompatible	1	Smaller5	1	167908	k	738	1	360542_220124_231109	33	33	1
number6	d	2.NC-C	Smaller5	Larger5	no	Left	NORMAL	Incompatible	-1	Larger5	6	169719	d	617	1	360542_220124_231109	34	34	1
number9Mirror	d	2.NC-C	Smaller5	Larger5	no	Left	MIRROR	Incompatible	-1	Larger5	9	173337	d	2416	1	360542_220124_231109	35	35	1
number7Mirror	d	2.NC-C	Smaller5	Larger5	no	Left	MIRROR	Incompatible	-1	Larger5	7	175340	d	803	1	360542_220124_231109	36	36	1
number9Mirror	d	2.NC-C	Smaller5	Larger5	no	Left	MIRROR	Incompatible	-1	Larger5	9	177183	d	647	1	360542_220124_231109	37	37	1
number1Mirror	k	2.NC-C	Smaller5	Larger5	no	Right	MIRROR	Incompatible	1	Smaller5	1	179256	k	887	1	360542_220124_231109	38	38	1
number1	k	2.NC-C	Smaller5	Larger5	no	Right	NORMAL	Incompatible	1	Smaller5	1	181456	k	1002	1	360542_220124_231109	39	39	1
number3Mirror	k	2.NC-C	Smaller5	Larger5	no	Right	MIRROR	Incompatible	1	Smaller5	3	183423	k	769	1	360542_220124_231109	40	40	1
number6	d	2.NC-C	Smaller5	Larger5	no	Left	NORMAL	Incompatible	-1	Larger5	6	186112	d	1492	1	360542_220124_231109	41	41	1
number1	k	2.NC-C	Smaller5	Larger5	no	Right	NORMAL	Incompatible	1	Smaller5	1	187972	k	669	1	360542_220124_231109	42	42	1
number4	k	2.NC-C	Smaller5	Larger5	no	Right	NORMAL	Incompatible	1	Smaller5	4	189933	k	764	1	360542_220124_231109	43	43	1
number1Mirror	k	2.NC-C	Smaller5	Larger5	no	Right	MIRROR	Incompatible	1	Smaller5	1	191893	k	772	1	360542_220124_231109	44	44	1
number3	k	2.NC-C	Smaller5	Larger5	no	Right	NORMAL	Incompatible	1	Smaller5	3	193753	k	666	1	360542_220124_231109	45	45	1
number1Mirror	k	2.NC-C	Smaller5	Larger5	no	Right	MIRROR	Incompatible	1	Smaller5	1	195580	k	643	1	360542_220124_231109	46	46	1
number9Mirror	d	2.NC-C	Smaller5	Larger5	no	Left	MIRROR	Incompatible	-1	Larger5	9	197450	d	679	1	360542_220124_231109	47	47	1
number7	d	2.NC-C	Smaller5	Larger5	no	Left	NORMAL	Incompatible	-1	Larger5	7	199382	d	745	1	360542_220124_231109	48	48	1
number3Mirror	k	2.NC-C	Smaller5	Larger5	no	Right	MIRROR	Incompatible	1	Smaller5	3	201252	k	682	1	360542_220124_231109	49	49	1
number9	d	2.NC-C	Smaller5	Larger5	no	Left	NORMAL	Incompatible	-1	Larger5	9	204054	d	1617	1	360542_220124_231109	50	50	1
number1Mirror	k	2.NC-C	Smaller5	Larger5	no	Right	MIRROR	Incompatible	1	Smaller5	1	205838	k	584	1	360542_220124_231109	51	51	1
number7	d	2.NC-C	Smaller5	Larger5	no	Left	NORMAL	Incompatible	-1	Larger5	7	207689	d	651	1	360542_220124_231109	52	52	1
number4	k	2.NC-C	Smaller5	Larger5	no	Right	NORMAL	Incompatible	1	Smaller5	4	209546	k	660	1	360542_220124_231109	53	53	1
number9	d	2.NC-C	Smaller5	Larger5	no	Left	NORMAL	Incompatible	-1	Larger5	9	211262	d	525	1	360542_220124_231109	54	54	1
number9Mirror	d	2.NC-C	Smaller5	Larger5	no	Left	MIRROR	Incompatible	-1	Larger5	9	213162	d	708	1	360542_220124_231109	55	55	1
number4Mirror	k	2.NC-C	Smaller5	Larger5	no	Right	MIRROR	Incompatible	1	Smaller5	4	214922	k	568	1	360542_220124_231109	56	56	1
number3Mirror	k	2.NC-C	Smaller5	Larger5	no	Right	MIRROR	Incompatible	1	Smaller5	3	216702	k	582	1	360542_220124_231109	57	57	1
number9	d	2.NC-C	Smaller5	Larger5	no	Left	NORMAL	Incompatible	-1	Larger5	9	219861	d	1974	1	360542_220124_231109	58	58	1
number7Mirror	d	2.NC-C	Smaller5	Larger5	no	Left	MIRROR	Incompatible	-1	Larger5	7	221602	d	548	1	360542_220124_231109	59	59	1
number7	d	2.NC-C	Smaller5	Larger5	no	Left	NORMAL	Incompatible	-1	Larger5	7	223349	d	561	1	360542_220124_231109	60	60	1
number6Mirror	d	2.NC-C	Smaller5	Larger5	no	Left	MIRROR	Incompatible	-1	Larger5	6	225320	d	783	1	360542_220124_231109	61	61	1
number1	k	2.NC-C	Smaller5	Larger5	no	Right	NORMAL	Incompatible	1	Smaller5	1	227654	k	1150	1	360542_220124_231109	62	62	1
number3Mirror	k	2.NC-C	Smaller5	Larger5	no	Right	MIRROR	Incompatible	1	Smaller5	3	229362	k	524	1	360542_220124_231109	63	63	1
number9Mirror	d	2.NC-C	Smaller5	Larger5	no	Left	MIRROR	Incompatible	-1	Larger5	9	231973	d	1419	1	360542_220124_231109	64	64	1
number6Mirror	d	2.NC-C	Smaller5	Larger5	no	Left	MIRROR	Incompatible	-1	Larger5	6	234560	d	1389	1	360542_220124_231109	65	65	1
number6Mirror	d	2.NC-C	Smaller5	Larger5	no	Left	MIRROR	Incompatible	-1	Larger5	6	236359	d	605	1	360542_220124_231109	66	66	1
number4	k	2.NC-C	Smaller5	Larger5	no	Right	NORMAL	Incompatible	1	Smaller5	4	238099	k	545	1	360542_220124_231109	67	67	1
number1	k	2.NC-C	Smaller5	Larger5	no	Right	NORMAL	Incompatible	1	Smaller5	1	239818	k	530	1	360542_220124_231109	68	68	1
number1Mirror	k	2.NC-C	Smaller5	Larger5	no	Right	MIRROR	Incompatible	1	Smaller5	1	241523	k	519	1	360542_220124_231109	69	69	1
number3	k	2.NC-C	Smaller5	Larger5	no	Right	NORMAL	Incompatible	1	Smaller5	3	243273	k	553	1	360542_220124_231109	70	70	1
number6Mirror	d	2.NC-C	Smaller5	Larger5	no	Left	MIRROR	Incompatible	-1	Larger5	6	245191	d	721	1	360542_220124_231109	71	71	1
number6Mirror	d	2.NC-C	Smaller5	Larger5	no	Left	MIRROR	Incompatible	-1	Larger5	6	246902	d	515	1	360542_220124_231109	72	72	1
number3	k	2.NC-C	Smaller5	Larger5	no	Right	NORMAL	Incompatible	1	Smaller5	3	248783	k	695	1	360542_220124_231109	73	73	1
number6	d	2.NC-C	Smaller5	Larger5	no	Left	NORMAL	Incompatible	-1	Larger5	6	250595	d	624	1	360542_220124_231109	74	74	1
number4Mirror	k	2.NC-C	Smaller5	Larger5	no	Right	MIRROR	Incompatible	1	Smaller5	4	252372	k	584	1	360542_220124_231109	75	75	1
number1	k	2.NC-C	Smaller5	Larger5	no	Right	NORMAL	Incompatible	1	Smaller5	1	254131	k	559	1	360542_220124_231109	76	76	1
number4Mirror	k	2.NC-C	Smaller5	Larger5	no	Right	MIRROR	Incompatible	1	Smaller5	4	255901	k	580	1	360542_220124_231109	77	77	1
number9Mirror	d	2.NC-C	Smaller5	Larger5	no	Left	MIRROR	Incompatible	-1	Larger5	9	257742	d	654	1	360542_220124_231109	78	78	1
number4	k	2.NC-C	Smaller5	Larger5	no	Right	NORMAL	Incompatible	1	Smaller5	4	259435	k	497	1	360542_220124_231109	79	79	1
number4Mirror	k	2.NC-C	Smaller5	Larger5	no	Right	MIRROR	Incompatible	1	Smaller5	4	261354	k	733	1	360542_220124_231109	80	80	1
number4Mirror	k	2.NC-C	Smaller5	Larger5	no	Right	MIRROR	Incompatible	1	Smaller5	4	263309	k	755	1	360542_220124_231109	81	81	1
number6	d	2.NC-C	Smaller5	Larger5	no	Left	NORMAL	Incompatible	-1	Larger5	6	265252	d	747	1	360542_220124_231109	82	82	1
number7	d	2.NC-C	Smaller5	Larger5	no	Left	NORMAL	Incompatible	-1	Larger5	7	266917	d	479	1	360542_220124_231109	83	83	1
number6Mirror	d	2.NC-C	Smaller5	Larger5	no	Left	MIRROR	Incompatible	-1	Larger5	6	268575	d	470	1	360542_220124_231109	84	84	1
number3	k	2.NC-C	Smaller5	Larger5	no	Right	NORMAL	Incompatible	1	Smaller5	3	270390	k	620	1	360542_220124_231109	85	85	1
number1	k	2.NC-C	Smaller5	Larger5	no	Right	NORMAL	Incompatible	1	Smaller5	1	272065	k	478	1	360542_220124_231109	86	86	1
number3	k	2.NC-C	Smaller5	Larger5	no	Right	NORMAL	Incompatible	1	Smaller5	3	273742	k	488	1	360542_220124_231109	87	87	1
number9Mirror	d	2.NC-C	Smaller5	Larger5	no	Left	MIRROR	Incompatible	-1	Larger5	9	275420	d	483	1	360542_220124_231109	88	88	1
number4	k	2.NC-C	Smaller5	Larger5	no	Right	NORMAL	Incompatible	1	Smaller5	4	277131	k	526	1	360542_220124_231109	89	89	1
number3Mirror	k	2.NC-C	Smaller5	Larger5	no	Right	MIRROR	Incompatible	1	Smaller5	3	278855	k	533	1	360542_220124_231109	90	90	1
number1	k	2.NC-C	Smaller5	Larger5	no	Right	NORMAL	Incompatible	1	Smaller5	1	280580	k	526	1	360542_220124_231109	91	91	1
number3	k	2.NC-C	Smaller5	Larger5	no	Right	NORMAL	Incompatible	1	Smaller5	3	282421	k	650	1	360542_220124_231109	92	92	1
number6Mirror	d	2.NC-C	Smaller5	Larger5	no	Left	MIRROR	Incompatible	-1	Larger5	6	284263	d	642	1	360542_220124_231109	93	93	1
number9	d	2.NC-C	Smaller5	Larger5	no	Left	NORMAL	Incompatible	-1	Larger5	9	286132	d	677	1	360542_220124_231109	94	94	1
number7	d	2.NC-C	Smaller5	Larger5	no	Left	NORMAL	Incompatible	-1	Larger5	7	287817	d	495	1	360542_220124_231109	95	95	1
number4	k	2.NC-C	Smaller5	Larger5	no	Right	NORMAL	Incompatible	1	Smaller5	4	289584	k	579	1	360542_220124_231109	96	96	1
number9	d	2.NC-C	Smaller5	Larger5	no	Left	NORMAL	Incompatible	-1	Larger5	9	291215	d	444	1	360542_220124_231109	97	97	1
number7Mirror	d	2.NC-C	Smaller5	Larger5	no	Left	MIRROR	Incompatible	-1	Larger5	7	292953	d	549	1	360542_220124_231109	98	98	1
number6Mirror	d	2.NC-C	Smaller5	Larger5	no	Left	MIRROR	Incompatible	-1	Larger5	6	294590	d	451	1	360542_220124_231109	99	99	1
number6Mirror	d	2.NC-C	Smaller5	Larger5	no	Left	MIRROR	Incompatible	-1	Larger5	6	296201	d	413	1	360542_220124_231109	100	100	1
number4Mirror	k	2.NC-C	Smaller5	Larger5	no	Right	MIRROR	Incompatible	1	Smaller5	4	297828	k	439	1	360542_220124_231109	101	101	1
number9Mirror	d	2.NC-C	Smaller5	Larger5	no	Left	MIRROR	Incompatible	-1	Larger5	9	300004	d	983	1	360542_220124_231109	102	102	1
number4Mirror	k	2.NC-C	Smaller5	Larger5	no	Right	MIRROR	Incompatible	1	Smaller5	4	301692	k	504	1	360542_220124_231109	103	103	1
number6Mirror	d	2.NC-C	Smaller5	Larger5	no	Left	MIRROR	Incompatible	-1	Larger5	6	303737	d	848	1	360542_220124_231109	104	104	1
number3	k	2.NC-C	Smaller5	Larger5	no	Right	NORMAL	Incompatible	1	Smaller5	3	305582	k	660	1	360542_220124_231109	105	105	1
number9Mirror	d	2.NC-C	Smaller5	Larger5	no	Left	MIRROR	Incompatible	-1	Larger5	9	307326	d	554	1	360542_220124_231109	106	106	1
number3	k	2.NC-C	Smaller5	Larger5	no	Right	NORMAL	Incompatible	1	Smaller5	3	309147	k	625	1	360542_220124_231109	107	107	1
number6Mirror	d	2.NC-C	Smaller5	Larger5	no	Left	MIRROR	Incompatible	-1	Larger5	6	311149	d	811	1	360542_220124_231109	108	108	1
number7	d	2.NC-C	Smaller5	Larger5	no	Left	NORMAL	Incompatible	-1	Larger5	7	313057	d	719	1	360542_220124_231109	109	109	1
number9Mirror	d	2.NC-C	Smaller5	Larger5	no	Left	MIRROR	Incompatible	-1	Larger5	9	315196	d	941	1	360542_220124_231109	110	110	1
number6Mirror	d	2.NC-C	Smaller5	Larger5	no	Left	MIRROR	Incompatible	-1	Larger5	6	317455	d	1066	1	360542_220124_231109	111	111	1
number6Mirror	d	2.NC-C	Smaller5	Larger5	no	Left	MIRROR	Incompatible	-1	Larger5	6	319077	d	438	1	360542_220124_231109	112	112	1
number4	k	2.NC-C	Smaller5	Larger5	no	Right	NORMAL	Incompatible	1	Smaller5	4	320817	k	545	1	360542_220124_231109	113	113	1
number1Mirror	k	2.NC-C	Smaller5	Larger5	no	Right	MIRROR	Incompatible	1	Smaller5	1	322693	k	688	1	360542_220124_231109	114	114	1
number4	k	2.NC-C	Smaller5	Larger5	no	Right	NORMAL	Incompatible	1	Smaller5	4	324428	k	540	1	360542_220124_231109	115	115	1
number1	k	2.NC-C	Smaller5	Larger5	no	Right	NORMAL	Incompatible	1	Smaller5	1	326214	k	591	1	360542_220124_231109	116	116	1
number1	k	2.NC-C	Smaller5	Larger5	no	Right	NORMAL	Incompatible	1	Smaller5	1	327844	k	439	1	360542_220124_231109	117	117	1
number9	d	2.NC-C	Smaller5	Larger5	no	Left	NORMAL	Incompatible	-1	Larger5	9	329624	d	585	1	360542_220124_231109	118	118	1
number7Mirror	d	2.NC-C	Smaller5	Larger5	no	Left	MIRROR	Incompatible	-1	Larger5	7	331407	d	584	1	360542_220124_231109	119	119	1
number1	k	2.NC-C	Smaller5	Larger5	no	Right	NORMAL	Incompatible	1	Smaller5	1	333101	d	496	0	360542_220124_231109	120	120	1
number3Mirror	k	2.NC-C	Smaller5	Larger5	no	Right	MIRROR	Incompatible	1	Smaller5	3	335399	k	694	1	360542_220124_231109	121	121	1
number3	k	2.NC-C	Smaller5	Larger5	no	Right	NORMAL	Incompatible	1	Smaller5	3	337213	k	625	1	360542_220124_231109	122	122	1
number9	d	2.NC-C	Smaller5	Larger5	no	Left	NORMAL	Incompatible	-1	Larger5	9	339209	d	803	1	360542_220124_231109	123	123	1
number9	d	2.NC-C	Smaller5	Larger5	no	Left	NORMAL	Incompatible	-1	Larger5	9	341100	d	695	1	360542_220124_231109	124	124	1
number9	d	2.NC-C	Smaller5	Larger5	no	Left	NORMAL	Incompatible	-1	Larger5	9	342822	d	533	1	360542_220124_231109	125	125	1
number7Mirror	d	2.NC-C	Smaller5	Larger5	no	Left	MIRROR	Incompatible	-1	Larger5	7	344864	d	842	1	360542_220124_231109	126	126	1
number9Mirror	d	2.NC-C	Smaller5	Larger5	no	Left	MIRROR	Incompatible	-1	Larger5	9	346740	d	684	1	360542_220124_231109	127	127	1
number7Mirror	d	2.NC-C	Smaller5	Larger5	no	Left	MIRROR	Incompatible	-1	Larger5	7	348493	d	554	1	360542_220124_231109	128	128	1
number6Mirror	d	2.NC-C	Smaller5	Larger5	no	Left	MIRROR	Incompatible	-1	Larger5	6	350698	d	1009	1	360542_220124_231109	129	129	1
number3	k	2.NC-C	Smaller5	Larger5	no	Right	NORMAL	Incompatible	1	Smaller5	3	352376	k	488	1	360542_220124_231109	130	130	1
number6	d	2.NC-C	Smaller5	Larger5	no	Left	NORMAL	Incompatible	-1	Larger5	6	354060	d	488	1	360542_220124_231109	131	131	1
number3Mirror	k	2.NC-C	Smaller5	Larger5	no	Right	MIRROR	Incompatible	1	Smaller5	3	356026	k	770	1	360542_220124_231109	132	132	1
number9Mirror	d	2.NC-C	Smaller5	Larger5	no	Left	MIRROR	Incompatible	-1	Larger5	9	357944	d	722	1	360542_220124_231109	133	133	1
number6	d	2.NC-C	Smaller5	Larger5	no	Left	NORMAL	Incompatible	-1	Larger5	6	359649	d	509	1	360542_220124_231109	134	134	1
number3Mirror	k	2.NC-C	Smaller5	Larger5	no	Right	MIRROR	Incompatible	1	Smaller5	3	361393	k	554	1	360542_220124_231109	135	135	1
number3	k	2.NC-C	Smaller5	Larger5	no	Right	NORMAL	Incompatible	1	Smaller5	3	363117	k	528	1	360542_220124_231109	136	136	1
number6	d	2.NC-C	Smaller5	Larger5	no	Left	NORMAL	Incompatible	-1	Larger5	6	365440	d	1135	1	360542_220124_231109	137	137	1
number9	d	2.NC-C	Smaller5	Larger5	no	Left	NORMAL	Incompatible	-1	Larger5	9	367195	d	556	1	360542_220124_231109	138	138	1
number7	d	2.NC-C	Smaller5	Larger5	no	Left	NORMAL	Incompatible	-1	Larger5	7	369066	d	677	1	360542_220124_231109	139	139	1
number3Mirror	k	2.NC-C	Smaller5	Larger5	no	Right	MIRROR	Incompatible	1	Smaller5	3	370797	k	541	1	360542_220124_231109	140	140	1
number7	d	2.NC-C	Smaller5	Larger5	no	Left	NORMAL	Incompatible	-1	Larger5	7	372507	k	518	0	360542_220124_231109	141	141	1
number7	d	2.NC-C	Smaller5	Larger5	no	Left	NORMAL	Incompatible	-1	Larger5	7	374745	d	640	1	360542_220124_231109	142	142	1
number4Mirror	k	2.NC-C	Smaller5	Larger5	no	Right	MIRROR	Incompatible	1	Smaller5	4	376486	k	547	1	360542_220124_231109	143	143	1
number7Mirror	d	2.NC-C	Smaller5	Larger5	no	Left	MIRROR	Incompatible	-1	Larger5	7	378332	d	660	1	360542_220124_231109	144	144	1
number3	k	2.NC-C	Smaller5	Larger5	no	Right	NORMAL	Incompatible	1	Smaller5	3	380110	k	587	1	360542_220124_231109	145	145	1
number6Mirror	d	2.NC-C	Smaller5	Larger5	no	Left	MIRROR	Incompatible	-1	Larger5	6	381819	d	514	1	360542_220124_231109	146	146	1
number3	k	2.NC-C	Smaller5	Larger5	no	Right	NORMAL	Incompatible	1	Smaller5	3	383568	k	562	1	360542_220124_231109	147	147	1
number7	d	2.NC-C	Smaller5	Larger5	no	Left	NORMAL	Incompatible	-1	Larger5	7	385655	d	899	1	360542_220124_231109	148	148	1
number1Mirror	k	2.NC-C	Smaller5	Larger5	no	Right	MIRROR	Incompatible	1	Smaller5	1	387587	k	748	1	360542_220124_231109	149	149	1
number6	d	2.NC-C	Smaller5	Larger5	no	Left	NORMAL	Incompatible	-1	Larger5	6	389303	d	530	1	360542_220124_231109	150	150	1
number9	d	2.NC-C	Smaller5	Larger5	no	Left	NORMAL	Incompatible	-1	Larger5	9	391094	d	605	1	360542_220124_231109	151	151	1
number9Mirror	d	2.NC-C	Smaller5	Larger5	no	Left	MIRROR	Incompatible	-1	Larger5	9	392939	d	650	1	360542_220124_231109	152	152	1
number7Mirror	d	2.NC-C	Smaller5	Larger5	no	Left	MIRROR	Incompatible	-1	Larger5	7	394684	d	561	1	360542_220124_231109	153	153	1
number9	d	2.NC-C	Smaller5	Larger5	no	Left	NORMAL	Incompatible	-1	Larger5	9	396702	d	829	1	360542_220124_231109	154	154	1
number1Mirror	k	2.NC-C	Smaller5	Larger5	no	Right	MIRROR	Incompatible	1	Smaller5	1	398644	k	755	1	360542_220124_231109	155	155	1
number4Mirror	k	2.NC-C	Smaller5	Larger5	no	Right	MIRROR	Incompatible	1	Smaller5	4	400943	k	1103	1	360542_220124_231109	156	156	1
number4Mirror	k	2.NC-C	Smaller5	Larger5	no	Right	MIRROR	Incompatible	1	Smaller5	4	402702	k	564	1	360542_220124_231109	157	157	1
number3Mirror	k	2.NC-C	Smaller5	Larger5	no	Right	MIRROR	Incompatible	1	Smaller5	3	404515	k	626	1	360542_220124_231109	158	158	1
number4Mirror	k	2.NC-C	Smaller5	Larger5	no	Right	MIRROR	Incompatible	1	Smaller5	4	406325	k	620	1	360542_220124_231109	159	159	1
number6Mirror	d	2.NC-C	Smaller5	Larger5	no	Left	MIRROR	Incompatible	-1	Larger5	6	408060	d	536	1	360542_220124_231109	160	160	1
number9Mirror	d	2.NC-C	Smaller5	Larger5	no	Left	MIRROR	Incompatible	-1	Larger5	9	409704	d	447	1	360542_220124_231109	161	161	1
number9	d	2.NC-C	Smaller5	Larger5	no	Left	NORMAL	Incompatible	-1	Larger5	9	411444	d	554	1	360542_220124_231109	162	162	1
number3Mirror	k	2.NC-C	Smaller5	Larger5	no	Right	MIRROR	Incompatible	1	Smaller5	3	413177	k	538	1	360542_220124_231109	163	163	1
number9	d	2.NC-C	Smaller5	Larger5	no	Left	NORMAL	Incompatible	-1	Larger5	9	415149	d	776	1	360542_220124_231109	164	164	1
number9Mirror	d	2.NC-C	Smaller5	Larger5	no	Left	MIRROR	Incompatible	-1	Larger5	9	416933	d	593	1	360542_220124_231109	165	165	1
number1	k	2.NC-C	Smaller5	Larger5	no	Right	NORMAL	Incompatible	1	Smaller5	1	418637	k	514	1	360542_220124_231109	166	166	1
number4	k	2.NC-C	Smaller5	Larger5	no	Right	NORMAL	Incompatible	1	Smaller5	4	420404	k	581	1	360542_220124_231109	167	167	1
number1	k	2.NC-C	Smaller5	Larger5	no	Right	NORMAL	Incompatible	1	Smaller5	1	422317	k	727	1	360542_220124_231109	168	168	1
number4	k	2.NC-C	Smaller5	Larger5	no	Right	NORMAL	Incompatible	1	Smaller5	4	424143	k	637	1	360542_220124_231109	169	169	1
number1Mirror	k	2.NC-C	Smaller5	Larger5	no	Right	MIRROR	Incompatible	1	Smaller5	1	425915	k	575	1	360542_220124_231109	170	170	1
number3Mirror	k	2.NC-C	Smaller5	Larger5	no	Right	MIRROR	Incompatible	1	Smaller5	3	427537	k	430	1	360542_220124_231109	171	171	1
number4	k	2.NC-C	Smaller5	Larger5	no	Right	NORMAL	Incompatible	1	Smaller5	4	429177	k	453	1	360542_220124_231109	172	172	1
number6	d	2.NC-C	Smaller5	Larger5	no	Left	NORMAL	Incompatible	-1	Larger5	6	430917	d	544	1	360542_220124_231109	173	173	1
number7	d	2.NC-C	Smaller5	Larger5	no	Left	NORMAL	Incompatible	-1	Larger5	7	432594	d	487	1	360542_220124_231109	174	174	1
number1Mirror	k	2.NC-C	Smaller5	Larger5	no	Right	MIRROR	Incompatible	1	Smaller5	1	434371	k	581	1	360542_220124_231109	175	175	1
number7	d	2.NC-C	Smaller5	Larger5	no	Left	NORMAL	Incompatible	-1	Larger5	7	436015	d	458	1	360542_220124_231109	176	176	1
number7Mirror	d	2.NC-C	Smaller5	Larger5	no	Left	MIRROR	Incompatible	-1	Larger5	7	437721	d	515	1	360542_220124_231109	177	177	1
number9Mirror	d	2.NC-C	Smaller5	Larger5	no	Left	MIRROR	Incompatible	-1	Larger5	9	439513	d	606	1	360542_220124_231109	178	178	1
number7Mirror	d	2.NC-C	Smaller5	Larger5	no	Left	MIRROR	Incompatible	-1	Larger5	7	441479	d	772	1	360542_220124_231109	179	179	1
number6Mirror	d	2.NC-C	Smaller5	Larger5	no	Left	MIRROR	Incompatible	-1	Larger5	6	443258	d	585	1	360542_220124_231109	180	180	1
number4Mirror	k	2.NC-C	Smaller5	Larger5	no	Right	MIRROR	Incompatible	1	Smaller5	4	445254	k	797	1	360542_220124_231109	181	181	1
number4	k	2.NC-C	Smaller5	Larger5	no	Right	NORMAL	Incompatible	1	Smaller5	4	447432	k	993	1	360542_220124_231109	182	182	1
number4	k	2.NC-C	Smaller5	Larger5	no	Right	NORMAL	Incompatible	1	Smaller5	4	449219	k	596	1	360542_220124_231109	183	183	1
number6Mirror	d	2.NC-C	Smaller5	Larger5	no	Left	MIRROR	Incompatible	-1	Larger5	6	451117	d	710	1	360542_220124_231109	184	184	1
number3	k	2.NC-C	Smaller5	Larger5	no	Right	NORMAL	Incompatible	1	Smaller5	3	452832	k	525	1	360542_220124_231109	185	185	1
number9	d	2.NC-C	Smaller5	Larger5	no	Left	NORMAL	Incompatible	-1	Larger5	9	454735	d	712	1	360542_220124_231109	186	186	1
number1	k	2.NC-C	Smaller5	Larger5	no	Right	NORMAL	Incompatible	1	Smaller5	1	456480	k	557	1	360542_220124_231109	187	187	1
number4Mirror	k	2.NC-C	Smaller5	Larger5	no	Right	MIRROR	Incompatible	1	Smaller5	4	458673	k	999	1	360542_220124_231109	188	188	1
number6	d	2.NC-C	Smaller5	Larger5	no	Left	NORMAL	Incompatible	-1	Larger5	6	460711	d	853	1	360542_220124_231109	189	189	1
number4	k	2.NC-C	Smaller5	Larger5	no	Right	NORMAL	Incompatible	1	Smaller5	4	462490	k	583	1	360542_220124_231109	190	190	1
number1Mirror	k	2.NC-C	Smaller5	Larger5	no	Right	MIRROR	Incompatible	1	Smaller5	1	464456	k	782	1	360542_220124_231109	191	191	1
number4Mirror	k	2.NC-C	Smaller5	Larger5	no	Right	MIRROR	Incompatible	1	Smaller5	4	466176	k	535	1	360542_220124_231109	192	192	1
number7Mirror	d	2.NC-C	Smaller5	Larger5	no	Left	MIRROR	Incompatible	-1	Larger5	7	468014	d	640	1	360542_220124_231109	193	193	1
number9Mirror	d	2.NC-C	Smaller5	Larger5	no	Left	MIRROR	Incompatible	-1	Larger5	9	469843	d	636	1	360542_220124_231109	194	194	1
number4	k	2.NC-C	Smaller5	Larger5	no	Right	NORMAL	Incompatible	1	Smaller5	4	471793	k	752	1	360542_220124_231109	195	195	1
number6	d	2.NC-C	Smaller5	Larger5	no	Left	NORMAL	Incompatible	-1	Larger5	6	473548	d	558	1	360542_220124_231109	196	196	1
number3	k	2.NC-C	Smaller5	Larger5	no	Right	NORMAL	Incompatible	1	Smaller5	3	475367	k	626	1	360542_220124_231109	197	197	1
number7	d	2.NC-C	Smaller5	Larger5	no	Left	NORMAL	Incompatible	-1	Larger5	7	477030	d	473	1	360542_220124_231109	198	198	1
number9	d	2.NC-C	Smaller5	Larger5	no	Left	NORMAL	Incompatible	-1	Larger5	9	478925	d	701	1	360542_220124_231109	199	199	1
number9Mirror	d	2.NC-C	Smaller5	Larger5	no	Left	MIRROR	Incompatible	-1	Larger5	9	512445	d	32321	1	360542_220124_231109	200	200	1
number4	k	2.NC-C	Smaller5	Larger5	no	Right	NORMAL	Incompatible	1	Smaller5	4	515023	k	1381	1	360542_220124_231109	201	201	1
number6	d	2.NC-C	Smaller5	Larger5	no	Left	NORMAL	Incompatible	-1	Larger5	6	516728	d	521	1	360542_220124_231109	202	202	1
number6	d	2.NC-C	Smaller5	Larger5	no	Left	NORMAL	Incompatible	-1	Larger5	6	519210	d	1286	1	360542_220124_231109	203	203	1
number9	d	2.NC-C	Smaller5	Larger5	no	Left	NORMAL	Incompatible	-1	Larger5	9	521540	d	1132	1	360542_220124_231109	204	204	1
number1Mirror	k	2.NC-C	Smaller5	Larger5	no	Right	MIRROR	Incompatible	1	Smaller5	1	523599	k	874	1	360542_220124_231109	205	205	1
number1Mirror	k	2.NC-C	Smaller5	Larger5	no	Right	MIRROR	Incompatible	1	Smaller5	1	525289	k	498	1	360542_220124_231109	206	206	1
number1Mirror	k	2.NC-C	Smaller5	Larger5	no	Right	MIRROR	Incompatible	1	Smaller5	1	526967	k	493	1	360542_220124_231109	207	207	1
number3Mirror	k	2.NC-C	Smaller5	Larger5	no	Right	MIRROR	Incompatible	1	Smaller5	3	528685	k	527	1	360542_220124_231109	208	208	1
number3	k	2.NC-C	Smaller5	Larger5	no	Right	NORMAL	Incompatible	1	Smaller5	3	530523	k	649	1	360542_220124_231109	209	209	1
number3Mirror	k	2.NC-C	Smaller5	Larger5	no	Right	MIRROR	Incompatible	1	Smaller5	3	532243	k	535	1	360542_220124_231109	210	210	1
number7Mirror	d	2.NC-C	Smaller5	Larger5	no	Left	MIRROR	Incompatible	-1	Larger5	7	534040	d	599	1	360542_220124_231109	211	211	1
number7	d	2.NC-C	Smaller5	Larger5	no	Left	NORMAL	Incompatible	-1	Larger5	7	535805	d	580	1	360542_220124_231109	212	212	1
number7	d	2.NC-C	Smaller5	Larger5	no	Left	NORMAL	Incompatible	-1	Larger5	7	537424	d	433	1	360542_220124_231109	213	213	1
number1	k	2.NC-C	Smaller5	Larger5	no	Right	NORMAL	Incompatible	1	Smaller5	1	539156	k	548	1	360542_220124_231109	214	214	1
number3Mirror	k	2.NC-C	Smaller5	Larger5	no	Right	MIRROR	Incompatible	1	Smaller5	3	540845	k	505	1	360542_220124_231109	215	215	1
number7Mirror	d	2.NC-C	Smaller5	Larger5	no	Left	MIRROR	Incompatible	-1	Larger5	7	542803	d	762	1	360542_220124_231109	216	216	1
number9Mirror	d	2.NC-C	Smaller5	Larger5	no	Left	MIRROR	Incompatible	-1	Larger5	9	544974	d	982	1	360542_220124_231109	217	217	1
number3Mirror	k	2.NC-C	Smaller5	Larger5	no	Right	MIRROR	Incompatible	1	Smaller5	3	546643	k	485	1	360542_220124_231109	218	218	1
number9Mirror	d	2.NC-C	Smaller5	Larger5	no	Left	MIRROR	Incompatible	-1	Larger5	9	548461	d	620	1	360542_220124_231109	219	219	1
number6	d	2.NC-C	Smaller5	Larger5	no	Left	NORMAL	Incompatible	-1	Larger5	6	550383	d	725	1	360542_220124_231109	220	220	1
number1	k	2.NC-C	Smaller5	Larger5	no	Right	NORMAL	Incompatible	1	Smaller5	1	552071	k	496	1	360542_220124_231109	221	221	1
number7	d	2.NC-C	Smaller5	Larger5	no	Left	NORMAL	Incompatible	-1	Larger5	7	553747	d	489	1	360542_220124_231109	222	222	1
number1	k	2.NC-C	Smaller5	Larger5	no	Right	NORMAL	Incompatible	1	Smaller5	1	555479	k	537	1	360542_220124_231109	223	223	1
number1	k	2.NC-C	Smaller5	Larger5	no	Right	NORMAL	Incompatible	1	Smaller5	1	557350	k	675	1	360542_220124_231109	224	224	1
number6	d	2.NC-C	Smaller5	Larger5	no	Left	NORMAL	Incompatible	-1	Larger5	6	559167	d	626	1	360542_220124_231109	225	225	1
number9	d	2.NC-C	Smaller5	Larger5	no	Left	NORMAL	Incompatible	-1	Larger5	9	560904	d	546	1	360542_220124_231109	226	226	1
number7Mirror	d	2.NC-C	Smaller5	Larger5	no	Left	MIRROR	Incompatible	-1	Larger5	7	562602	d	511	1	360542_220124_231109	227	227	1
number4	k	2.NC-C	Smaller5	Larger5	no	Right	NORMAL	Incompatible	1	Smaller5	4	564711	k	919	1	360542_220124_231109	228	228	1
number7Mirror	d	2.NC-C	Smaller5	Larger5	no	Left	MIRROR	Incompatible	-1	Larger5	7	568097	d	2189	1	360542_220124_231109	229	229	1
number6	d	2.NC-C	Smaller5	Larger5	no	Left	NORMAL	Incompatible	-1	Larger5	6	570298	d	1006	1	360542_220124_231109	230	230	1
number6Mirror	d	2.NC-C	Smaller5	Larger5	no	Left	MIRROR	Incompatible	-1	Larger5	6	572847	d	1356	1	360542_220124_231109	231	231	1
number3Mirror	k	2.NC-C	Smaller5	Larger5	no	Right	MIRROR	Incompatible	1	Smaller5	3	574976	k	935	1	360542_220124_231109	232	232	1
number3Mirror	k	2.NC-C	Smaller5	Larger5	no	Right	MIRROR	Incompatible	1	Smaller5	3	577504	k	1329	1	360542_220124_231109	233	233	1
number4Mirror	k	2.NC-C	Smaller5	Larger5	no	Right	MIRROR	Incompatible	1	Smaller5	4	580014	k	1322	1	360542_220124_231109	234	234	1
number7Mirror	d	2.NC-C	Smaller5	Larger5	no	Left	MIRROR	Incompatible	-1	Larger5	7	581753	d	545	1	360542_220124_231109	235	235	1
number7Mirror	d	2.NC-C	Smaller5	Larger5	no	Left	MIRROR	Incompatible	-1	Larger5	7	583759	d	817	1	360542_220124_231109	236	236	1
number4Mirror	k	2.NC-C	Smaller5	Larger5	no	Right	MIRROR	Incompatible	1	Smaller5	4	585490	k	531	1	360542_220124_231109	237	237	1
number1Mirror	k	2.NC-C	Smaller5	Larger5	no	Right	MIRROR	Incompatible	1	Smaller5	1	587248	k	573	1	360542_220124_231109	238	238	1
number6	d	2.NC-C	Smaller5	Larger5	no	Left	NORMAL	Incompatible	-1	Larger5	6	589098	d	656	1	360542_220124_231109	239	239	1
number1	k	2.NC-C	Smaller5	Larger5	no	Right	NORMAL	Incompatible	1	Smaller5	1	590864	k	572	1	360542_220124_231109	240	240	1
number7	d	2.NC-C	Smaller5	Larger5	no	Left	NORMAL	Incompatible	-1	Larger5	7	592805	d	747	1	360542_220124_231109	241	241	1
number3	k	2.NC-C	Smaller5	Larger5	no	Right	NORMAL	Incompatible	1	Smaller5	3	594502	k	510	1	360542_220124_231109	242	242	1
number4	k	2.NC-C	Smaller5	Larger5	no	Right	NORMAL	Incompatible	1	Smaller5	4	596761	k	1069	1	360542_220124_231109	243	243	1
number7	d	2.NC-C	Smaller5	Larger5	no	Left	NORMAL	Incompatible	-1	Larger5	7	598716	d	757	1	360542_220124_231109	244	244	1
number7Mirror	d	2.NC-C	Smaller5	Larger5	no	Left	MIRROR	Incompatible	-1	Larger5	7	600868	d	960	1	360542_220124_231109	245	245	1
number4	k	2.NC-C	Smaller5	Larger5	no	Right	NORMAL	Incompatible	1	Smaller5	4	602596	k	538	1	360542_220124_231109	246	246	1
number6	d	2.NC-C	Smaller5	Larger5	no	Left	NORMAL	Incompatible	-1	Larger5	6	604241	d	449	1	360542_220124_231109	247	247	1
number7	d	2.NC-C	Smaller5	Larger5	no	Left	NORMAL	Incompatible	-1	Larger5	7	605879	d	453	1	360542_220124_231109	248	248	1
number6	d	2.NC-C	Smaller5	Larger5	no	Left	NORMAL	Incompatible	-1	Larger5	6	607860	d	785	1	360542_220124_231109	249	249	1
number1Mirror	k	2.NC-C	Smaller5	Larger5	no	Right	MIRROR	Incompatible	1	Smaller5	1	609645	k	587	1	360542_220124_231109	250	250	1
number1	k	2.NC-C	Smaller5	Larger5	no	Right	NORMAL	Incompatible	1	Smaller5	1	611432	k	590	1	360542_220124_231109	251	251	1
number1Mirror	k	2.NC-C	Smaller5	Larger5	no	Right	MIRROR	Incompatible	1	Smaller5	1	613165	k	540	1	360542_220124_231109	252	252	1
number6Mirror	d	2.NC-C	Smaller5	Larger5	no	Left	MIRROR	Incompatible	-1	Larger5	6	614936	d	577	1	360542_220124_231109	253	253	1
number3	k	2.NC-C	Smaller5	Larger5	no	Right	NORMAL	Incompatible	1	Smaller5	3	616726	k	600	1	360542_220124_231109	254	254	1
number9	d	2.NC-C	Smaller5	Larger5	no	Left	NORMAL	Incompatible	-1	Larger5	9	618667	d	742	1	360542_220124_231109	255	255	1
number7Mirror	d	2.NC-C	Smaller5	Larger5	no	Left	MIRROR	Incompatible	-1	Larger5	7	620389	d	530	1	360542_220124_231109	256	256	1
number4Mirror	k	2.NC-C	Smaller5	Larger5	no	Right	MIRROR	Incompatible	1	Smaller5	4	622477	k	902	1	360542_220124_231109	257	257	1
number3	k	2.NC-C	Smaller5	Larger5	no	Right	NORMAL	Incompatible	1	Smaller5	3	627769	k	4093	1	360542_220124_231109	258	258	1
number1Mirror	k	2.NC-C	Smaller5	Larger5	no	Right	MIRROR	Incompatible	1	Smaller5	1	629657	k	698	1	360542_220124_231109	259	259	1
number4Mirror	k	2.NC-C	Smaller5	Larger5	no	Right	MIRROR	Incompatible	1	Smaller5	4	631395	k	552	1	360542_220124_231109	260	260	1
number3Mirror	k	2.NC-C	Smaller5	Larger5	no	Right	MIRROR	Incompatible	1	Smaller5	3	633149	k	557	1	360542_220124_231109	261	261	1
number9	d	2.NC-C	Smaller5	Larger5	no	Left	NORMAL	Incompatible	-1	Larger5	9	634941	d	599	1	360542_220124_231109	262	262	1
number4Mirror	k	2.NC-C	Smaller5	Larger5	no	Right	MIRROR	Incompatible	1	Smaller5	4	636642	k	517	1	360542_220124_231109	263	263	1
number7Mirror	d	2.NC-C	Smaller5	Larger5	no	Left	MIRROR	Incompatible	-1	Larger5	7	638386	d	543	1	360542_220124_231109	264	264	1
number4Mirror	d	2.NC-C	Smaller5	Larger5	no	Left	MIRROR	Compatible	1	Smaller5	4	731231	d	1019	1	360542_220124_231109	289	25	2
number3Mirror	d	2.NC-C	Smaller5	Larger5	no	Left	MIRROR	Compatible	1	Smaller5	3	732985	d	557	1	360542_220124_231109	290	26	2
number1	d	2.NC-C	Smaller5	Larger5	no	Left	NORMAL	Compatible	1	Smaller5	1	734747	d	569	1	360542_220124_231109	291	27	2
number1Mirror	d	2.NC-C	Smaller5	Larger5	no	Left	MIRROR	Compatible	1	Smaller5	1	736410	d	465	1	360542_220124_231109	292	28	2
number9	k	2.NC-C	Smaller5	Larger5	no	Right	NORMAL	Compatible	-1	Larger5	9	738066	k	471	1	360542_220124_231109	293	29	2
number3	d	2.NC-C	Smaller5	Larger5	no	Left	NORMAL	Compatible	1	Smaller5	3	739759	d	497	1	360542_220124_231109	294	30	2
number4Mirror	d	2.NC-C	Smaller5	Larger5	no	Left	MIRROR	Compatible	1	Smaller5	4	741503	d	557	1	360542_220124_231109	295	31	2
number1	d	2.NC-C	Smaller5	Larger5	no	Left	NORMAL	Compatible	1	Smaller5	1	743214	d	518	1	360542_220124_231109	296	32	2
number9Mirror	k	2.NC-C	Smaller5	Larger5	no	Right	MIRROR	Compatible	-1	Larger5	9	744975	k	562	1	360542_220124_231109	297	33	2
number9	k	2.NC-C	Smaller5	Larger5	no	Right	NORMAL	Compatible	-1	Larger5	9	746798	k	637	1	360542_220124_231109	298	34	2
number6	k	2.NC-C	Smaller5	Larger5	no	Right	NORMAL	Compatible	-1	Larger5	6	748502	k	507	1	360542_220124_231109	299	35	2
number6Mirror	k	2.NC-C	Smaller5	Larger5	no	Right	MIRROR	Compatible	-1	Larger5	6	750202	k	506	1	360542_220124_231109	300	36	2
number7	k	2.NC-C	Smaller5	Larger5	no	Right	NORMAL	Compatible	-1	Larger5	7	751859	k	462	1	360542_220124_231109	301	37	2
number3Mirror	d	2.NC-C	Smaller5	Larger5	no	Left	MIRROR	Compatible	1	Smaller5	3	753610	d	563	1	360542_220124_231109	302	38	2
number4	d	2.NC-C	Smaller5	Larger5	no	Left	NORMAL	Compatible	1	Smaller5	4	755683	d	886	1	360542_220124_231109	303	39	2
number3	d	2.NC-C	Smaller5	Larger5	no	Left	NORMAL	Compatible	1	Smaller5	3	757566	d	686	1	360542_220124_231109	304	40	2
number3Mirror	d	2.NC-C	Smaller5	Larger5	no	Left	MIRROR	Compatible	1	Smaller5	3	759202	d	439	1	360542_220124_231109	305	41	2
number9Mirror	k	2.NC-C	Smaller5	Larger5	no	Right	MIRROR	Compatible	-1	Larger5	9	760965	k	567	1	360542_220124_231109	306	42	2
number9	k	2.NC-C	Smaller5	Larger5	no	Right	NORMAL	Compatible	-1	Larger5	9	763123	k	958	1	360542_220124_231109	307	43	2
number7Mirror	k	2.NC-C	Smaller5	Larger5	no	Right	MIRROR	Compatible	-1	Larger5	7	765747	k	1432	1	360542_220124_231109	308	44	2
number3Mirror	d	2.NC-C	Smaller5	Larger5	no	Left	MIRROR	Compatible	1	Smaller5	3	767431	d	483	1	360542_220124_231109	309	45	2
number7	k	2.NC-C	Smaller5	Larger5	no	Right	NORMAL	Compatible	-1	Larger5	7	769118	k	488	1	360542_220124_231109	310	46	2
number6	k	2.NC-C	Smaller5	Larger5	no	Right	NORMAL	Compatible	-1	Larger5	6	770824	k	510	1	360542_220124_231109	311	47	2
number6	k	2.NC-C	Smaller5	Larger5	no	Right	NORMAL	Compatible	-1	Larger5	6	772543	k	528	1	360542_220124_231109	312	48	2
number7Mirror	k	2.NC-C	Smaller5	Larger5	no	Right	MIRROR	Compatible	-1	Larger5	7	774187	k	455	1	360542_220124_231109	313	49	2
number1Mirror	d	2.NC-C	Smaller5	Larger5	no	Left	MIRROR	Compatible	1	Smaller5	1	775960	d	578	1	360542_220124_231109	314	50	2
number1Mirror	d	2.NC-C	Smaller5	Larger5	no	Left	MIRROR	Compatible	1	Smaller5	1	777608	d	460	1	360542_220124_231109	315	51	2
number4	d	2.NC-C	Smaller5	Larger5	no	Left	NORMAL	Compatible	1	Smaller5	4	779662	d	864	1	360542_220124_231109	316	52	2
number1Mirror	d	2.NC-C	Smaller5	Larger5	no	Left	MIRROR	Compatible	1	Smaller5	1	781285	d	435	1	360542_220124_231109	317	53	2
number1	d	2.NC-C	Smaller5	Larger5	no	Left	NORMAL	Compatible	1	Smaller5	1	782915	d	432	1	360542_220124_231109	318	54	2
number4Mirror	d	2.NC-C	Smaller5	Larger5	no	Left	MIRROR	Compatible	1	Smaller5	4	784631	d	531	1	360542_220124_231109	319	55	2
number4Mirror	d	2.NC-C	Smaller5	Larger5	no	Left	MIRROR	Compatible	1	Smaller5	4	786295	d	478	1	360542_220124_231109	320	56	2
number1Mirror	d	2.NC-C	Smaller5	Larger5	no	Left	MIRROR	Compatible	1	Smaller5	1	788312	d	829	1	360542_220124_231109	321	57	2
number3Mirror	d	2.NC-C	Smaller5	Larger5	no	Left	MIRROR	Compatible	1	Smaller5	3	789992	d	493	1	360542_220124_231109	322	58	2
number4Mirror	d	2.NC-C	Smaller5	Larger5	no	Left	MIRROR	Compatible	1	Smaller5	4	791632	d	447	1	360542_220124_231109	323	59	2
number3	d	2.NC-C	Smaller5	Larger5	no	Left	NORMAL	Compatible	1	Smaller5	3	793263	d	445	1	360542_220124_231109	324	60	2
number6	k	2.NC-C	Smaller5	Larger5	no	Right	NORMAL	Compatible	-1	Larger5	6	794881	k	431	1	360542_220124_231109	325	61	2
number7Mirror	k	2.NC-C	Smaller5	Larger5	no	Right	MIRROR	Compatible	-1	Larger5	7	796524	k	457	1	360542_220124_231109	326	62	2
number3	d	2.NC-C	Smaller5	Larger5	no	Left	NORMAL	Compatible	1	Smaller5	3	798177	d	459	1	360542_220124_231109	327	63	2
number6	k	2.NC-C	Smaller5	Larger5	no	Right	NORMAL	Compatible	-1	Larger5	6	800052	k	684	1	360542_220124_231109	328	64	2
number1	d	2.NC-C	Smaller5	Larger5	no	Left	NORMAL	Compatible	1	Smaller5	1	801799	d	547	1	360542_220124_231109	329	65	2
number3	d	2.NC-C	Smaller5	Larger5	no	Left	NORMAL	Compatible	1	Smaller5	3	803622	d	637	1	360542_220124_231109	330	66	2
number3Mirror	d	2.NC-C	Smaller5	Larger5	no	Left	MIRROR	Compatible	1	Smaller5	3	805540	d	721	1	360542_220124_231109	331	67	2
number9	k	2.NC-C	Smaller5	Larger5	no	Right	NORMAL	Compatible	-1	Larger5	9	807248	k	512	1	360542_220124_231109	332	68	2
number6	k	2.NC-C	Smaller5	Larger5	no	Right	NORMAL	Compatible	-1	Larger5	6	808883	k	448	1	360542_220124_231109	333	69	2
number9	k	2.NC-C	Smaller5	Larger5	no	Right	NORMAL	Compatible	-1	Larger5	9	810658	k	589	1	360542_220124_231109	334	70	2
number3	d	2.NC-C	Smaller5	Larger5	no	Left	NORMAL	Compatible	1	Smaller5	3	812312	d	458	1	360542_220124_231109	335	71	2
number7Mirror	k	2.NC-C	Smaller5	Larger5	no	Right	MIRROR	Compatible	-1	Larger5	7	814359	k	856	1	360542_220124_231109	336	72	2
number6Mirror	k	2.NC-C	Smaller5	Larger5	no	Right	MIRROR	Compatible	-1	Larger5	6	816092	k	540	1	360542_220124_231109	337	73	2
number6	k	2.NC-C	Smaller5	Larger5	no	Right	NORMAL	Compatible	-1	Larger5	6	817804	k	517	1	360542_220124_231109	338	74	2
number9	k	2.NC-C	Smaller5	Larger5	no	Right	NORMAL	Compatible	-1	Larger5	9	819651	k	648	1	360542_220124_231109	339	75	2
number7Mirror	k	2.NC-C	Smaller5	Larger5	no	Right	MIRROR	Compatible	-1	Larger5	7	821520	k	684	1	360542_220124_231109	340	76	2
number3Mirror	d	2.NC-C	Smaller5	Larger5	no	Left	MIRROR	Compatible	1	Smaller5	3	823416	d	695	1	360542_220124_231109	341	77	2
number9Mirror	k	2.NC-C	Smaller5	Larger5	no	Right	MIRROR	Compatible	-1	Larger5	9	825673	k	1069	1	360542_220124_231109	342	78	2
number6Mirror	k	2.NC-C	Smaller5	Larger5	no	Right	MIRROR	Compatible	-1	Larger5	6	828226	k	1355	1	360542_220124_231109	343	79	2
number7	k	2.NC-C	Smaller5	Larger5	no	Right	NORMAL	Compatible	-1	Larger5	7	830088	k	667	1	360542_220124_231109	344	80	2
number6Mirror	k	2.NC-C	Smaller5	Larger5	no	Right	MIRROR	Compatible	-1	Larger5	6	831801	k	514	1	360542_220124_231109	345	81	2
number9Mirror	k	2.NC-C	Smaller5	Larger5	no	Right	MIRROR	Compatible	-1	Larger5	9	833567	k	578	1	360542_220124_231109	346	82	2
number6Mirror	k	2.NC-C	Smaller5	Larger5	no	Right	MIRROR	Compatible	-1	Larger5	6	835331	k	576	1	360542_220124_231109	347	83	2
number1Mirror	d	2.NC-C	Smaller5	Larger5	no	Left	MIRROR	Compatible	1	Smaller5	1	837098	d	577	1	360542_220124_231109	348	84	2
number3	d	2.NC-C	Smaller5	Larger5	no	Left	NORMAL	Compatible	1	Smaller5	3	838782	d	494	1	360542_220124_231109	349	85	2
number9Mirror	k	2.NC-C	Smaller5	Larger5	no	Right	MIRROR	Compatible	-1	Larger5	9	840520	k	549	1	360542_220124_231109	350	86	2
number7	k	2.NC-C	Smaller5	Larger5	no	Right	NORMAL	Compatible	-1	Larger5	7	842210	k	505	1	360542_220124_231109	351	87	2
number4Mirror	d	2.NC-C	Smaller5	Larger5	no	Left	MIRROR	Compatible	1	Smaller5	4	843841	d	434	1	360542_220124_231109	352	88	2
number6Mirror	k	2.NC-C	Smaller5	Larger5	no	Right	MIRROR	Compatible	-1	Larger5	6	845707	k	667	1	360542_220124_231109	353	89	2
number3Mirror	d	2.NC-C	Smaller5	Larger5	no	Left	MIRROR	Compatible	1	Smaller5	3	847368	d	461	1	360542_220124_231109	354	90	2
number4	d	2.NC-C	Smaller5	Larger5	no	Left	NORMAL	Compatible	1	Smaller5	4	849352	d	795	1	360542_220124_231109	355	91	2
number1Mirror	d	2.NC-C	Smaller5	Larger5	no	Left	MIRROR	Compatible	1	Smaller5	1	851272	d	733	1	360542_220124_231109	356	92	2
number9Mirror	k	2.NC-C	Smaller5	Larger5	no	Right	MIRROR	Compatible	-1	Larger5	9	853020	k	563	1	360542_220124_231109	357	93	2
number9	k	2.NC-C	Smaller5	Larger5	no	Right	NORMAL	Compatible	-1	Larger5	9	855024	k	816	1	360542_220124_231109	358	94	2
number3	d	2.NC-C	Smaller5	Larger5	no	Left	NORMAL	Compatible	1	Smaller5	3	856877	d	654	1	360542_220124_231109	359	95	2
number4	d	2.NC-C	Smaller5	Larger5	no	Left	NORMAL	Compatible	1	Smaller5	4	858752	d	678	1	360542_220124_231109	360	96	2
number6Mirror	k	2.NC-C	Smaller5	Larger5	no	Right	MIRROR	Compatible	-1	Larger5	6	860479	k	538	1	360542_220124_231109	361	97	2
number6	k	2.NC-C	Smaller5	Larger5	no	Right	NORMAL	Compatible	-1	Larger5	6	862621	k	947	1	360542_220124_231109	362	98	2
number1Mirror	d	2.NC-C	Smaller5	Larger5	no	Left	MIRROR	Compatible	1	Smaller5	1	864417	d	610	1	360542_220124_231109	363	99	2
number6	k	2.NC-C	Smaller5	Larger5	no	Right	NORMAL	Compatible	-1	Larger5	6	866221	k	612	1	360542_220124_231109	364	100	2
number7Mirror	k	2.NC-C	Smaller5	Larger5	no	Right	MIRROR	Compatible	-1	Larger5	7	867969	k	561	1	360542_220124_231109	365	101	2
number1	d	2.NC-C	Smaller5	Larger5	no	Left	NORMAL	Compatible	1	Smaller5	1	869615	d	457	1	360542_220124_231109	366	102	2
number4Mirror	d	2.NC-C	Smaller5	Larger5	no	Left	MIRROR	Compatible	1	Smaller5	4	871852	d	1044	1	360542_220124_231109	367	103	2
number6	k	2.NC-C	Smaller5	Larger5	no	Right	NORMAL	Compatible	-1	Larger5	6	873963	k	923	1	360542_220124_231109	368	104	2
number3Mirror	d	2.NC-C	Smaller5	Larger5	no	Left	MIRROR	Compatible	1	Smaller5	3	875885	d	725	1	360542_220124_231109	369	105	2
number7	k	2.NC-C	Smaller5	Larger5	no	Right	NORMAL	Compatible	-1	Larger5	7	877863	k	787	1	360542_220124_231109	370	106	2
number4	d	2.NC-C	Smaller5	Larger5	no	Left	NORMAL	Compatible	1	Smaller5	4	879531	d	472	1	360542_220124_231109	371	107	2
number4	d	2.NC-C	Smaller5	Larger5	no	Left	NORMAL	Compatible	1	Smaller5	4	881381	d	655	1	360542_220124_231109	372	108	2
number3Mirror	d	2.NC-C	Smaller5	Larger5	no	Left	MIRROR	Compatible	1	Smaller5	3	883106	d	530	1	360542_220124_231109	373	109	2
number7Mirror	k	2.NC-C	Smaller5	Larger5	no	Right	MIRROR	Compatible	-1	Larger5	7	884857	k	563	1	360542_220124_231109	374	110	2
number1Mirror	d	2.NC-C	Smaller5	Larger5	no	Left	MIRROR	Compatible	1	Smaller5	1	886700	d	657	1	360542_220124_231109	375	111	2
number9Mirror	k	2.NC-C	Smaller5	Larger5	no	Right	MIRROR	Compatible	-1	Larger5	9	888498	k	604	1	360542_220124_231109	376	112	2
number6Mirror	k	2.NC-C	Smaller5	Larger5	no	Right	MIRROR	Compatible	-1	Larger5	6	890209	k	515	1	360542_220124_231109	377	113	2
number4Mirror	d	2.NC-C	Smaller5	Larger5	no	Left	MIRROR	Compatible	1	Smaller5	4	891882	d	489	1	360542_220124_231109	378	114	2
